time,seconds_elapsed,z,y,x
1748142653947671300,0.11667138671875,9.094182968139648,3.6583609580993652,0.38514676690101624
1748142653965939000,0.13493896484375,9.00074291229248,3.8837177753448486,0.3734673857688904
1748142653984206600,0.15320654296875,8.921538352966309,4.066405296325684,0.32650694251060486
1748142654002468000,0.171468017578125,8.863388061523438,4.189536094665527,0.3525084853172302
1748142654020732700,0.189732666015625,8.800564765930176,4.296756744384766,0.569252610206604
1748142654038997800,0.207997802734375,8.686836242675781,4.441771507263184,1.0225704908370972
1748142654057269000,0.22626904296875,8.53160572052002,4.619566440582275,1.4516966342926025
1748142654075528200,0.244528076171875,8.402141571044922,4.738489627838135,1.7851753234863281
1748142654093793000,0.26279296875,8.318625450134277,4.806148529052734,1.9843170642852783
1748142654112053200,0.28105322265625,8.288997650146484,4.8843464851379395,1.9161897897720337
1748142654130322200,0.299322265625,8.249072074890137,5.001299858093262,1.7821133136749268
1748142654148589300,0.31758935546875,8.260030746459961,5.044109344482422,1.601549506187439
1748142654166850300,0.335850341796875,8.351960182189941,4.972713470458984,1.3240044116973877
1748142654185121800,0.354121826171875,8.45885944366455,4.8446946144104,1.10124933719635
1748142654203379000,0.37237890625,8.537144660949707,4.728121757507324,0.9990692138671875
1748142654221647600,0.390647705078125,8.549914360046387,4.686627388000488,1.0819425582885742
1748142654239913700,0.408913818359375,8.509746551513672,4.690104007720947,1.3502753973007202
1748142654258179600,0.4271796875,8.432188034057617,4.706096172332764,1.728285312652588
1748142654276444000,0.44544384765625,8.332868576049805,4.7444257736206055,2.0711936950683594
1748142654294708700,0.463708740234375,8.206701278686523,4.831862449645996,2.353566884994507
1748142654312974000,0.48197412109375,8.042303085327148,4.961312770843506,2.634925127029419
1748142654331234600,0.500234619140625,7.857634544372559,5.0713396072387695,2.962298631668091
1748142654349503700,0.518503662109375,7.687201976776123,5.0625691413879395,3.393143892288208
1748142654367769300,0.536769287109375,7.508294582366943,5.016439437866211,3.8336610794067383
1748142654386033200,0.555033203125,7.275150299072266,5.025562763214111,4.2487664222717285
1748142654404300500,0.573300537109375,7.032427787780762,5.018780708312988,4.646817684173584
1748142654422564600,0.591564697265625,6.865195274353027,4.887159824371338,5.022039413452148
1748142654440829400,0.609829345703125,6.71791410446167,4.674560546875,5.408717632293701
1748142654459094800,0.6280947265625,6.472476005554199,4.4392242431640625,5.885274410247803
1748142654477359600,0.646359619140625,6.011078357696533,4.197447776794434,6.518012523651123
1748142654495625000,0.664625,5.314817428588867,3.942852020263672,7.241737365722656
1748142654513889800,0.682889892578125,4.4523725509643555,3.6402199268341064,7.9474077224731445
1748142654532154600,0.701154541015625,3.4614787101745605,3.2286887168884277,8.592429161071777
1748142654550419700,0.719419677734375,2.459568738937378,2.6819794178009033,9.11008358001709
1748142654568684000,0.73768408203125,1.499502182006836,2.05033278465271,9.475428581237793
1748142654586951400,0.755951416015625,0.5473344922065735,1.3497257232666016,9.701278686523438
1748142654605211100,0.774211181640625,-0.38805925846099854,0.5989133715629578,9.78400993347168
1748142654623477800,0.792477783203125,-1.2772033214569092,-0.15427294373512268,9.725281715393066
1748142654641747200,0.810747314453125,-2.0410220623016357,-0.854974091053009,9.557162284851074
1748142654660010200,0.82901025390625,-2.623990058898926,-1.4474961757659912,9.34106731414795
1748142654678276900,0.84727685546875,-3.0542962551116943,-2.0137040615081787,9.10232925415039
1748142654696540200,0.8655400390625,-3.3814284801483154,-2.590130090713501,8.837039947509766
1748142654714801000,0.88380078125,-3.6380867958068848,-3.179266929626465,8.53772258758545
1748142654733057500,0.9020576171875,-3.807663679122925,-3.752195358276367,8.22550106048584
1748142654751337200,0.920337158203125,-3.8903229236602783,-4.270780086517334,7.928553104400635
1748142654769601000,0.93860107421875,-3.9217019081115723,-4.722808837890625,7.65189266204834
1748142654787865600,0.956865478515625,-3.921767473220825,-5.135011672973633,7.381565093994141
1748142654806131200,0.975131103515625,-3.835584878921509,-5.593152046203613,7.08809232711792
1748142654824389600,0.9933896484375,-3.6830549240112305,-6.041207790374756,6.795221328735352
1748142654842663200,1.0116630859375,-3.4898488521575928,-6.368198394775391,6.595689296722412
1748142654860927500,1.029927490234375,-3.2536206245422363,-6.52378511428833,6.5643205642700195
1748142654879191800,1.04819189453125,-2.9561045169830322,-6.518577575683594,6.708631992340088
1748142654897456000,1.0664560546875,-2.655104398727417,-6.336467266082764,7.002548694610596
1748142654915721500,1.084721435546875,-2.3343231678009033,-6.010522365570068,7.393285274505615
1748142654933974800,1.102974853515625,-1.9872459173202515,-5.57162618637085,7.825852394104004
1748142654952247800,1.121247802734375,-1.6948014497756958,-5.106287479400635,8.203022956848145
1748142654970512100,1.13951220703125,-1.4874387979507446,-4.524376392364502,8.57634449005127
1748142654988780300,1.1577802734375,-1.4365229606628418,-3.919192314147949,8.877638816833496
1748142655007047700,1.176047607421875,-1.535539150238037,-3.2954177856445312,9.11144733428955
1748142655025310000,1.19431005859375,-1.753494143486023,-2.7216391563415527,9.26034927368164
1748142655043580700,1.21258056640625,-2.01995587348938,-2.231032609939575,9.33693790435791
1748142655070977300,1.239977294921875,-2.504063129425049,-1.60016667842865,9.349077224731445
1748142655089235700,1.258235595703125,-2.8444125652313232,-1.1639447212219238,9.31615161895752
1748142655107504400,1.27650439453125,-3.073580265045166,-0.769547700881958,9.284235954284668
1748142655125770500,1.2947705078125,-3.074383020401001,-0.4621118903160095,9.304339408874512
1748142655144035000,1.31303515625,-2.930156946182251,-0.28164899349212646,9.357934951782227
1748142655162301200,1.33130126953125,-2.7901148796081543,-0.2154298573732376,9.402389526367188
1748142655180560100,1.34956005859375,-2.6948466300964355,-0.2777307629585266,9.428509712219238
1748142655198820900,1.36782080078125,-2.725083351135254,-0.38802242279052734,9.415916442871094
1748142655217096400,1.386096435546875,-2.8732781410217285,-0.509073793888092,9.365962028503418
1748142655235358200,1.404358154296875,-3.134303092956543,-0.7906696200370789,9.26213264465332
1748142655253616400,1.422616455078125,-3.3523895740509033,-1.327105164527893,9.123397827148438
1748142655271879000,1.44087890625,-3.4740052223205566,-2.0896027088165283,8.93313980102539
1748142655290155500,1.459155517578125,-3.4663026332855225,-3.0487523078918457,8.65598201751709
1748142655308418300,1.477418212890625,-3.3335041999816895,-3.8681111335754395,8.376251220703125
1748142655326687500,1.4956875,-3.252253532409668,-4.60128927230835,8.030386924743652
1748142655344952300,1.513952392578125,-3.326648473739624,-5.48893928527832,7.418968200683594
1748142655363211800,1.532211669921875,-3.4176437854766846,-6.292523384094238,6.70521879196167
1748142655381481700,1.550481689453125,-3.4423325061798096,-7.069014549255371,5.866474151611328
1748142655399746000,1.56874609375,-3.1741552352905273,-7.751060485839844,5.107043266296387
1748142655418011400,1.587011474609375,-2.8379499912261963,-8.328771591186523,4.3374810218811035
1748142655436276500,1.6052763671875,-2.564976453781128,-8.770112991333008,3.5696113109588623
1748142655454536700,1.62353662109375,-2.263852834701538,-9.057487487792969,3.0121445655822754
1748142655472807700,1.6418076171875,-1.8991628885269165,-9.224740028381348,2.744718313217163
1748142655491072300,1.660072265625,-1.5261683464050293,-9.318800926208496,2.6583621501922607
1748142655509336300,1.67833642578125,-1.2156403064727783,-9.383177757263184,2.591200351715088
1748142655527598000,1.69659814453125,-0.9696894288063049,-9.429390907287598,2.5263466835021973
1748142655545865200,1.714865234375,-0.7581713795661926,-9.453563690185547,2.5082685947418213
1748142655564133600,1.733133544921875,-0.5925293564796448,-9.4523286819458,2.557053327560425
1748142655582397200,1.751397216796875,-0.4911594092845917,-9.42237663269043,2.685833215713501
1748142655600661500,1.76966162109375,-0.5049383640289307,-9.36848258972168,2.8657772541046143
1748142655618928400,1.787928466796875,-0.5570408701896667,-9.323598861694336,2.9993906021118164
1748142655637193200,1.806193115234375,-0.5632807016372681,-9.309639930725098,3.041288375854492
1748142655655457500,1.82445751953125,-0.6243923306465149,-9.317631721496582,3.0046656131744385
1748142655673723400,1.842723388671875,-0.7021275162696838,-9.346519470214844,2.895810842514038
1748142655691983000,1.860983154296875,-0.7993649840354919,-9.393427848815918,2.713045120239258
1748142655710252000,1.879251953125,-0.9027639627456665,-9.432296752929688,2.5402603149414062
1748142655728519000,1.897518798828125,-0.9657822847366333,-9.417073249816895,2.573348045349121
1748142655746783700,1.91578369140625,-1.2538012266159058,-9.359346389770508,2.6583335399627686
1748142655765047600,1.934047607421875,-1.9010471105575562,-9.288324356079102,2.519757032394409
1748142655783309000,1.95230908203125,-2.756004571914673,-9.156302452087402,2.1915037631988525
1748142655801578000,1.970577880859375,-3.60632061958313,-8.966190338134766,1.684647560119629
1748142655819843000,1.988843017578125,-4.334759712219238,-8.729825973510742,1.1117963790893555
1748142655838109200,2.007109130859375,-4.894806385040283,-8.477229118347168,0.6431074738502502
1748142655856374300,2.025374267578125,-5.314547538757324,-8.233807563781738,0.44282105565071106
1748142655874634200,2.04363427734375,-5.622890949249268,-8.024418830871582,0.4774523675441742
1748142655892905000,2.061905029296875,-5.8167829513549805,-7.891493797302246,0.35434040427207947
1748142655911168000,2.08016796875,-5.924170970916748,-7.819212913513184,0.015850048512220383
1748142655929434600,2.0984345703125,-6.003202438354492,-7.749228477478027,-0.3836194574832916
1748142655947694300,2.1166943359375,-6.097593307495117,-7.652364730834961,-0.7048222422599792
1748142655965964300,2.13496435546875,-6.209888458251953,-7.539309024810791,-0.9122621417045593
1748142655984224000,2.15322412109375,-6.299503803253174,-7.447699546813965,-1.0412198305130005
1748142656002494700,2.17149462890625,-6.399781227111816,-7.35887336730957,-1.0610820055007935
1748142656020759300,2.18975927734375,-6.533432483673096,-7.257304668426514,-0.9391278028488159
1748142656039020500,2.2080205078125,-6.652328968048096,-7.175631046295166,-0.7021251916885376
1748142656057288000,2.226287841796875,-6.714008808135986,-7.140134811401367,-0.4203692078590393
1748142656075556400,2.244556396484375,-6.676161766052246,-7.185856342315674,-0.16865885257720947
1748142656093819400,2.2628193359375,-6.532777786254883,-7.3182525634765625,0.046129271388053894
1748142656112085500,2.28108544921875,-6.302543640136719,-7.514026641845703,0.2311682254076004
1748142656130349600,2.299349609375,-5.996216297149658,-7.753523826599121,0.40541261434555054
1748142656148615700,2.31761572265625,-5.608409404754639,-8.027702331542969,0.5812857747077942
1748142656166880000,2.3358798828125,-5.147660732269287,-8.318004608154297,0.740595817565918
1748142656185146000,2.35414599609375,-4.705756187438965,-8.566492080688477,0.8409696817398071
1748142656203410000,2.372409912109375,-4.388847827911377,-8.713923454284668,1.0206356048583984
1748142656221674800,2.3906748046875,-4.243943214416504,-8.741930961608887,1.3430157899856567
1748142656239940600,2.408940673828125,-4.34096622467041,-8.646982192993164,1.6192119121551514
1748142656258207500,2.42720751953125,-4.482479095458984,-8.529510498046875,1.8414528369903564
1748142656276470500,2.445470458984375,-4.728236675262451,-8.360280990600586,1.996396780014038
1748142656294732300,2.463732177734375,-4.950266361236572,-8.22984504699707,2.0001626014709473
1748142656313000000,2.482,-4.939705848693848,-8.2542085647583,1.9244486093521118
1748142656331270000,2.500269775390625,-4.7251081466674805,-8.378986358642578,1.9240682125091553
1748142656349531100,2.51853125,-4.376147270202637,-8.538110733032227,2.0459976196289062
1748142656367797000,2.536796875,-3.966928243637085,-8.691872596740723,2.2250707149505615
1748142656386061600,2.5550615234375,-3.5807013511657715,-8.828083038330078,2.3408617973327637
1748142656404312000,2.57331201171875,-3.2687346935272217,-8.94339370727539,2.3594987392425537
1748142656422594300,2.59159423828125,-3.0485498905181885,-9.026603698730469,2.337280750274658
1748142656440857300,2.609857421875,-2.8821887969970703,-9.080127716064453,2.3410284519195557
1748142656459122000,2.628121826171875,-2.5914127826690674,-9.149165153503418,2.411116361618042
1748142656477388000,2.646387939453125,-2.2494657039642334,-9.21461296081543,2.5033884048461914
1748142656495650800,2.66465087890625,-2.0627424716949463,-9.222023010253906,2.6335325241088867
1748142656513918700,2.682918701171875,-1.9932855367660522,-9.19936466217041,2.7630810737609863
1748142656532182300,2.701182373046875,-1.9443738460540771,-9.20113468170166,2.791884183883667
1748142656550443300,2.719443359375,-1.8311150074005127,-9.215044021606445,2.822431802749634
1748142656577845800,2.746845703125,-1.6667184829711914,-9.253847122192383,2.797234296798706
1748142656596105500,2.76510546875,-1.5704022645950317,-9.284357070922852,2.7514867782592773
1748142656614375000,2.783375,-1.43491530418396,-9.320395469665527,2.703216552734375
1748142656632640800,2.801640869140625,-1.2761051654815674,-9.35456657409668,2.664534091949463
1748142656650906600,2.81990673828125,-1.1297188997268677,-9.380003929138184,2.6410980224609375
1748142656669170700,2.838170654296875,-1.0109847784042358,-9.399575233459473,2.619544506072998
1748142656687436000,2.85643603515625,-0.9009481072425842,-9.417909622192383,2.5937232971191406
1748142656705701000,2.874701171875,-0.7760056853294373,-9.434008598327637,2.5755434036254883
1748142656723966200,2.89296630859375,-0.6407656669616699,-9.449541091918945,2.555725336074829
1748142656742226400,2.911226318359375,-0.5081616640090942,-9.474617958068848,2.4918859004974365
1748142656760496600,2.92949658203125,-0.43040743470191956,-9.49738597869873,2.418787956237793
1748142656778761700,2.94776171875,-0.442073792219162,-9.512292861938477,2.3573217391967773
1748142656797026800,2.96602685546875,-0.5037373304367065,-9.51323127746582,2.3411147594451904
1748142656815292000,2.9842919921875,-0.5858117938041687,-9.503493309020996,2.36147403717041
1748142656833556700,3.002556640625,-0.7277161478996277,-9.496400833129883,2.3505101203918457
1748142656860955000,3.029954833984375,-1.1825631856918335,-9.470999717712402,2.2666842937469482
1748142656879215000,3.048215087890625,-1.6491057872772217,-9.406855583190918,2.242243528366089
1748142656897480000,3.06647998046875,-2.271636724472046,-9.291533470153809,2.1778931617736816
1748142656915749000,3.0847490234375,-2.9718706607818604,-9.119140625,2.0604307651519775
1748142656934015700,3.103015625,-3.660421848297119,-8.890851020812988,1.946846604347229
1748142656952280600,3.121280517578125,-4.280152320861816,-8.608011245727539,1.9541114568710327
1748142656970545200,3.139545166015625,-4.761044979095459,-8.3250732421875,2.0643882751464844
1748142656988798700,3.157798828125,-5.082178592681885,-8.06965160369873,2.2996363639831543
1748142657007074800,3.17607470703125,-5.256982803344727,-7.866918087005615,2.59072208404541
1748142657025340400,3.19434033203125,-5.3537278175354,-7.703954696655273,2.8675460815429688
1748142657043605200,3.212605224609375,-5.4615397453308105,-7.555665969848633,3.0528011322021484
1748142657061870800,3.230870849609375,-5.627132892608643,-7.41528844833374,3.0959653854370117
1748142657080126500,3.24912646484375,-5.841123104095459,-7.3068318367004395,2.954249382019043
1748142657098403800,3.26740380859375,-6.059709072113037,-7.232720375061035,2.68399715423584
1748142657116664800,3.285664794921875,-6.229341506958008,-7.176028251647949,2.4363949298858643
1748142657134932700,3.3039326171875,-6.31165885925293,-7.1248459815979,2.3739511966705322
1748142657153191000,3.32219091796875,-6.318840026855469,-7.092626571655273,2.4501161575317383
1748142657171461600,3.340461669921875,-6.237630844116211,-7.114050388336182,2.5919806957244873
1748142657189726500,3.3587265625,-6.109895706176758,-7.165527820587158,2.749640464782715
1748142657207992000,3.376991943359375,-5.970948219299316,-7.2541985511779785,2.8214285373687744
1748142657226252800,3.395252685546875,-5.828191757202148,-7.377390384674072,2.800433397293091
1748142657244517400,3.413517333984375,-5.641121864318848,-7.543476104736328,2.7404026985168457
1748142657262786800,3.431786865234375,-5.409005641937256,-7.735004901885986,2.673673152923584
1748142657281052400,3.450052490234375,-5.142675876617432,-7.943243503570557,2.5872585773468018
1748142657299313400,3.4683134765625,-4.841121673583984,-8.17276382446289,2.4506382942199707
1748142657317585700,3.486585693359375,-4.5171356201171875,-8.403350830078125,2.283698081970215
1748142657335847200,3.50484716796875,-4.260613441467285,-8.557730674743652,2.2019433975219727
1748142657354113300,3.52311328125,-4.104551792144775,-8.5953369140625,2.3471221923828125
1748142657372377300,3.54137744140625,-4.021770477294922,-8.577889442443848,2.545832395553589
1748142657390642200,3.55964208984375,-4.023900032043457,-8.530046463012695,2.698638677597046
1748142657408898300,3.577898193359375,-4.00451135635376,-8.504593849182129,2.8056929111480713
1748142657427172600,3.596172607421875,-3.963348150253296,-8.503166198730469,2.8677828311920166
1748142657445439000,3.61443896484375,-3.9237730503082275,-8.5065336227417,2.9118781089782715
1748142657463703600,3.63270361328125,-3.7848782539367676,-8.537946701049805,3.0023789405822754
1748142657481968000,3.650968017578125,-3.47456431388855,-8.592761993408203,3.2137153148651123
1748142657500229000,3.66922900390625,-3.1233716011047363,-8.655654907226562,3.4000437259674072
1748142657518498300,3.687498291015625,-2.9319114685058594,-8.7212495803833,3.4029135704040527
1748142657536764400,3.705764404296875,-2.8499903678894043,-8.790562629699707,3.292365074157715
1748142657555029000,3.724029052734375,-2.7993698120117188,-8.850188255310059,3.1739325523376465
1748142657573294800,3.742294921875,-2.7018990516662598,-8.928825378417969,3.0351178646087646
1748142657591559000,3.760558837890625,-2.5327351093292236,-9.038032531738281,2.852250337600708
1748142657609823500,3.778823486328125,-2.334632396697998,-9.159939765930176,2.623189926147461
1748142657628090000,3.797090087890625,-2.1083545684814453,-9.244264602661133,2.5168519020080566
1748142657646355200,3.815355224609375,-1.9226773977279663,-9.267387390136719,2.579721212387085
1748142657664622300,3.833622314453125,-1.8315175771713257,-9.26838493347168,2.641728401184082
1748142657682883800,3.8518837890625,-1.7487800121307373,-9.286184310913086,2.6352689266204834
1748142657701151000,3.87015087890625,-1.6213668584823608,-9.32003116607666,2.5969808101654053
1748142657719415800,3.888415771484375,-1.4365317821502686,-9.366179466247559,2.539128541946411
1748142657737678800,3.906678955078125,-1.2300677299499512,-9.413203239440918,2.472788095474243
1748142657755947300,3.924947265625,-1.0461534261703491,-9.456298828125,2.3916749954223633
1748142657774206200,3.943206298828125,-0.9086591005325317,-9.494081497192383,2.2962770462036133
1748142657792476400,3.961476318359375,-0.8261396884918213,-9.519882202148438,2.219332695007324
1748142657810737400,3.9797373046875,-0.7830240726470947,-9.535237312316895,2.1684703826904297
1748142657829009000,3.9980087890625,-0.7556199431419373,-9.555740356445312,2.0863900184631348
1748142657847270700,4.016270751953125,-0.7007437944412231,-9.59843921661377,1.9013289213180542
1748142657865536800,4.034536865234375,-0.6173712611198425,-9.644930839538574,1.6823399066925049
1748142657883800800,4.05280078125,-0.4898069500923157,-9.688886642456055,1.456589698791504
1748142657902066700,4.071066650390625,-0.3265298902988434,-9.725475311279297,1.2428394556045532
1748142657920326700,4.08932666015625,-0.18495884537696838,-9.751606941223145,1.052655816078186
1748142657938596400,4.107596435546875,-0.06214815750718117,-9.768938064575195,0.8944877982139587
1748142657956862700,4.12586279296875,0.06482340395450592,-9.778557777404785,0.7821207046508789
1748142657975127600,4.14412744140625,0.20995685458183289,-9.77623462677002,0.7856570482254028
1748142657993391900,4.162391845703125,0.3388882577419281,-9.756339073181152,0.9670184254646301
1748142658011651600,4.180651611328125,0.3636295795440674,-9.711015701293945,1.3416684865951538
1748142658029922000,4.198922119140625,0.1698189377784729,-9.632230758666992,1.8513226509094238
1748142658048189700,4.217189697265625,-0.3247944116592407,-9.533684730529785,2.2889914512634277
1748142658066452000,4.235451904296875,-0.937380313873291,-9.38172721862793,2.7093610763549805
1748142658084718600,4.253718505859375,-1.538422703742981,-9.190546035766602,3.0664703845977783
1748142658102976000,4.27197607421875,-2.14072322845459,-9.027937889099121,3.185868978500366
1748142658121244700,4.29024462890625,-2.770569324493408,-8.871909141540527,3.138359308242798
1748142658139512800,4.308512939453125,-3.3822638988494873,-8.692516326904297,3.0391781330108643
1748142658157779000,4.326779052734375,-3.912397623062134,-8.476906776428223,3.011868715286255
1748142658176042800,4.345042724609375,-4.303931713104248,-8.242472648620605,3.1263303756713867
1748142658194306000,4.36330615234375,-4.532394886016846,-8.043365478515625,3.316286563873291
1748142658212576000,4.381575927734375,-4.663868427276611,-7.898622035980225,3.4779672622680664
1748142658230839300,4.39983935546875,-4.795600891113281,-7.799604892730713,3.522005081176758
1748142658249103000,4.41810302734375,-4.985959529876709,-7.7196784019470215,3.4326248168945312
1748142658267364900,4.43636474609375,-5.233185291290283,-7.613776683807373,3.298534393310547
1748142658285634600,4.454634521484375,-5.509415626525879,-7.454618453979492,3.211094617843628
1748142658303880700,4.472880615234375,-5.76133394241333,-7.270580768585205,3.1909008026123047
1748142658322163700,4.491163818359375,-5.948594570159912,-7.112006664276123,3.204641580581665
1748142658340430000,4.50943017578125,-6.057651519775391,-7.013071060180664,3.2183549404144287
1748142658358696200,4.5276962890625,-6.095827102661133,-6.988175392150879,3.2003729343414307
1748142658376959000,4.545958984375,-6.082496643066406,-7.03021240234375,3.1329681873321533
1748142658422621700,4.59162158203125,-5.855425834655762,-7.286159515380859,2.9769155979156494
1748142658440887800,4.6098876953125,-5.668148040771484,-7.440296173095703,2.958077907562256
1748142658459153200,4.628153076171875,-5.391873836517334,-7.636987209320068,2.9732508659362793
1748142658477413600,4.64641357421875,-4.988128185272217,-7.887399673461914,3.02384614944458
1748142658495682000,4.66468212890625,-4.479490756988525,-8.160152435302734,3.095513105392456
1748142658513949700,4.68294970703125,-3.9910330772399902,-8.37478256225586,3.1891651153564453
1748142658532209200,4.701209228515625,-3.6408791542053223,-8.472820281982422,3.345362424850464
1748142658550478800,4.719478759765625,-3.57588529586792,-8.430071830749512,3.518953561782837
1748142658568744200,4.737744140625,-3.682493209838867,-8.339069366455078,3.6242623329162598
1748142658587009300,4.75600927734375,-3.7170863151550293,-8.255709648132324,3.7765920162200928
1748142658605261800,4.77426171875,-3.6461470127105713,-8.227434158325195,3.9052631855010986
1748142658623539500,4.79253955078125,-3.5595149993896484,-8.257242202758789,3.9222352504730225
1748142658641791000,4.810791015625,-3.545569896697998,-8.311657905578613,3.818559408187866
1748142658660068400,4.829068359375,-3.5594990253448486,-8.370601654052734,3.674116849899292
1748142658678335700,4.847335693359375,-3.5093982219696045,-8.422805786132812,3.6023037433624268
1748142658696600000,4.86560009765625,-3.3044731616973877,-8.518874168395996,3.5700621604919434
1748142658714865000,4.883864990234375,-3.034193754196167,-8.638044357299805,3.5233521461486816
1748142658733130200,4.902130126953125,-2.809196949005127,-8.734423637390137,3.4719417095184326
1748142658751394000,4.92039404296875,-2.6845922470092773,-8.780682563781738,3.4537978172302246
1748142658769660700,4.93866064453125,-2.650139331817627,-8.779705047607422,3.482771158218384
1748142658787926500,4.956926513671875,-2.581106424331665,-8.77614688873291,3.543058395385742
1748142658806191400,4.97519140625,-2.331477642059326,-8.816143035888672,3.6160669326782227
1748142658824451300,4.993451416015625,-2.1503071784973145,-8.833492279052734,3.685335397720337
1748142658842720000,5.011719970703125,-2.1357486248016357,-8.827872276306152,3.7072055339813232
1748142658860987100,5.029987060546875,-2.1578288078308105,-8.838839530944824,3.6680796146392822
1748142658879247600,5.04824755859375,-2.1107914447784424,-8.8815279006958,3.591536283493042
1748142658897516800,5.066516845703125,-1.984415888786316,-8.940192222595215,3.5172717571258545
1748142658915781600,5.08478173828125,-1.7736424207687378,-9.006860733032227,3.459300994873047
1748142658934046700,5.103046630859375,-1.46331787109375,-9.079883575439453,3.4132895469665527
1748142658952311800,5.121311767578125,-1.086600422859192,-9.146479606628418,3.3759984970092773
1748142658970577400,5.139577392578125,-0.7269162535667419,-9.196327209472656,3.3369576930999756
1748142658988837600,5.157837646484375,-0.4988885521888733,-9.226374626159668,3.2956383228302
1748142659007106300,5.176106201171875,-0.39375239610671997,-9.24803352355957,3.24884295463562
1748142659025374000,5.1943740234375,-0.27545738220214844,-9.267951011657715,3.203958511352539
1748142659043638000,5.212637939453125,-0.082884281873703,-9.292828559875488,3.1420671939849854
1748142659061902600,5.230902587890625,0.13226227462291718,-9.320526123046875,3.057192802429199
1748142659080168200,5.249168212890625,0.2736213505268097,-9.349191665649414,2.958691358566284
1748142659098433300,5.267433349609375,0.2872208058834076,-9.379288673400879,2.8605220317840576
1748142659116699000,5.285698974609375,0.20718762278556824,-9.401309967041016,2.7943806648254395
1748142659134963000,5.303962890625,0.10546360164880753,-9.415639877319336,2.751499891281128
1748142659153224000,5.322223876953125,-0.0015249538701027632,-9.426904678344727,2.7146997451782227
1748142659171494000,5.340493896484375,-0.12628845870494843,-9.429986000061035,2.701024293899536
1748142659189759000,5.358759033203125,-0.3506747782230377,-9.415928840637207,2.730099678039551
1748142659208024000,5.377024169921875,-0.7599459886550903,-9.367080688476562,2.8136112689971924
1748142659226289400,5.395289306640625,-1.2814282178878784,-9.277185440063477,2.920255661010742
1748142659244550000,5.4135498046875,-1.8587478399276733,-9.158868789672852,2.982663631439209
1748142659262819600,5.431819580078125,-2.518817663192749,-8.996866226196289,2.9913339614868164
1748142659281084700,5.450084716796875,-3.2575371265411377,-8.760851860046387,2.978604555130005
1748142659299346700,5.4683466796875,-3.9762027263641357,-8.444005012512207,3.0207149982452393
1748142659317618000,5.486617919921875,-4.557015895843506,-8.088644027709961,3.169152021408081
1748142659335875300,5.504875244140625,-4.943220615386963,-7.7731032371521,3.3733603954315186
1748142659354144000,5.52314404296875,-5.161341667175293,-7.552162170410156,3.5442233085632324
1748142659372411600,5.54141162109375,-5.273388862609863,-7.432552814483643,3.631072759628296
1748142659390674400,5.55967431640625,-5.354373455047607,-7.3907999992370605,3.597616195678711
1748142659408941600,5.577941650390625,-5.43953275680542,-7.396806240081787,3.454688549041748
1748142659427203600,5.59620361328125,-5.5261077880859375,-7.397133827209473,3.3137052059173584
1748142659445473500,5.6144736328125,-5.596917152404785,-7.345042705535889,3.3107411861419678
1748142659463736300,5.632736328125,-5.652918338775635,-7.255223274230957,3.412099599838257
1748142659482001400,5.65100146484375,-5.706587314605713,-7.1749091148376465,3.4916539192199707
1748142659500261600,5.66926171875,-5.7617974281311035,-7.133597373962402,3.4856255054473877
1748142659518530300,5.6875302734375,-5.804980754852295,-7.128856182098389,3.42311954498291
1748142659536798000,5.7057978515625,-5.794472694396973,-7.14549446105957,3.4061901569366455
1748142659555062300,5.724062255859375,-5.685924053192139,-7.204736709594727,3.4638397693634033
1748142659573327000,5.7423271484375,-5.465693473815918,-7.316224098205566,3.5826215744018555
1748142659591587800,5.760587890625,-5.174662113189697,-7.465435981750488,3.7049059867858887
1748142659609856000,5.77885595703125,-4.854500770568848,-7.638274669647217,3.7850632667541504
1748142659628123600,5.79712353515625,-4.514986038208008,-7.82917594909668,3.815106153488159
1748142659646392600,5.815392578125,-4.138803482055664,-8.044939041137695,3.7928082942962646
1748142659664651500,5.833651611328125,-3.7322211265563965,-8.276803970336914,3.714991807937622
1748142659682908000,5.851907958984375,-3.344376564025879,-8.483745574951172,3.616262197494507
1748142659701183000,5.870182861328125,-3.1070938110351562,-8.589193344116211,3.5788025856018066
1748142659719440600,5.888440673828125,-3.1928646564483643,-8.535762786865234,3.630770444869995
1748142659737713700,5.906713623046875,-3.3523976802825928,-8.421310424804688,3.7522103786468506
1748142659755978500,5.924978515625,-3.3886775970458984,-8.351981163024902,3.8726470470428467
1748142659774239500,5.943239501953125,-3.2874741554260254,-8.373967170715332,3.912199020385742
1748142659792508700,5.9615087890625,-3.0958826541900635,-8.445734977722168,3.9142322540283203
1748142659810773800,5.979773681640625,-2.926776885986328,-8.519991874694824,3.8832764625549316
1748142659829039000,5.9980390625,-2.8252265453338623,-8.562628746032715,3.864661693572998
1748142659847299800,6.0162998046875,-2.6262550354003906,-8.582305908203125,3.960170030593872
1748142659865568000,6.034568115234375,-2.2553656101226807,-8.633626937866211,4.075530529022217
1748142659883836000,6.0528359375,-2.0290465354919434,-8.689483642578125,4.075780868530273
1748142659902099500,6.071099365234375,-1.9145764112472534,-8.759973526000977,3.9791181087493896
1748142659920365000,6.089364990234375,-1.8667850494384766,-8.84266185760498,3.8155734539031982
1748142659938631000,6.107630859375,-1.874570608139038,-8.884013175964355,3.714351177215576
1748142659956894700,6.125894775390625,-1.9269541501998901,-8.881380081176758,3.6937880516052246
1748142659975160600,6.14416064453125,-1.9759283065795898,-8.865998268127441,3.704847812652588
1748142659993425700,6.16242578125,-1.8322323560714722,-8.890894889831543,3.719011068344116
1748142660011689700,6.180689697265625,-1.3215181827545166,-8.9590482711792,3.77162504196167
1748142660029955800,6.198955810546875,-0.8511780500411987,-8.991708755493164,3.828941822052002
1748142660048217300,6.21721728515625,-0.7249553799629211,-8.999604225158691,3.83636474609375
1748142660066486300,6.235486328125,-0.7855910062789917,-9.005973815917969,3.8093817234039307
1748142660084751600,6.253751708984375,-0.7385375499725342,-9.028377532958984,3.7655134201049805
1748142660103016400,6.272016357421875,-0.564548671245575,-9.059311866760254,3.721060037612915
1748142660121281800,6.29028173828125,-0.3773404359817505,-9.08966064453125,3.6703975200653076
1748142660139547100,6.308547119140625,-0.2041824460029602,-9.118058204650879,3.613232135772705
1748142660157812200,6.326812255859375,-0.02354995533823967,-9.142772674560547,3.556018352508545
1748142660176077300,6.345077392578125,0.13280460238456726,-9.163609504699707,3.499532461166382
1748142660194337300,6.363337158203125,0.2386067509651184,-9.184796333312988,3.4378373622894287
1748142660212608000,6.38160791015625,0.32862433791160583,-9.209067344665527,3.364698648452759
1748142660230872600,6.39987255859375,0.4283682107925415,-9.23633098602295,3.2776217460632324
1748142660249138000,6.418137939453125,0.5405230522155762,-9.263324737548828,3.183515787124634
1748142660267403300,6.4364033203125,0.6606360077857971,-9.286964416503906,3.090625286102295
1748142660285659000,6.454658935546875,0.7636837959289551,-9.304401397705078,3.013472557067871
1748142660303935200,6.472935302734375,0.8235385417938232,-9.316424369812012,2.9600915908813477
1748142660322201000,6.491201171875,0.8529839515686035,-9.322423934936523,2.9327354431152344
1748142660340463600,6.509463623046875,0.8324379920959473,-9.329949378967285,2.914654016494751
1748142660358728700,6.527728759765625,0.7871184349060059,-9.337281227111816,2.90374493598938
1748142660376992800,6.54599267578125,0.7585705518722534,-9.35188102722168,2.864091396331787
1748142660395256600,6.564256591796875,0.6164554357528687,-9.382722854614258,2.796536922454834
1748142660413524200,6.582524169921875,0.24359633028507233,-9.396462440490723,2.807715892791748
1748142660431789600,6.60078955078125,-0.2987763583660126,-9.367104530334473,2.898998737335205
1748142660450053600,6.6190537109375,-0.9467238783836365,-9.28205680847168,3.030388116836548
1748142660468320800,6.63732080078125,-1.6587153673171997,-9.137101173400879,3.1619873046875
1748142660486585000,6.655585205078125,-2.381566047668457,-8.942645072937012,3.254748582839966
1748142660504849400,6.673849365234375,-3.058590888977051,-8.70082950592041,3.3431589603424072
1748142660523116000,6.692115966796875,-3.6210389137268066,-8.419587135314941,3.497824192047119
1748142660541380600,6.710380615234375,-3.9691848754882812,-8.152791023254395,3.743483304977417
1748142660559644200,6.72864404296875,-4.200411796569824,-7.949377059936523,3.924290180206299
1748142660577912000,6.746912109375,-4.436225414276123,-7.807888984680176,3.9487833976745605
1748142660596176000,6.76517578125,-4.6946306228637695,-7.702646732330322,3.855621337890625
1748142660614436000,6.78343603515625,-4.9701762199401855,-7.605785369873047,3.6993935108184814
1748142660632706300,6.801706298828125,-5.241802215576172,-7.495660305023193,3.5460853576660156
1748142660650971100,6.81997119140625,-5.454119682312012,-7.376531600952148,3.474975824356079
1748142660669232000,6.838232177734375,-5.556368350982666,-7.276219844818115,3.524137258529663
1748142660687501800,6.856501708984375,-5.578146934509277,-7.21460485458374,3.615224838256836
1748142660705761800,6.87476171875,-5.593512058258057,-7.188290596008301,3.6437952518463135
1748142660724030500,6.893030517578125,-5.652282238006592,-7.156072616577148,3.616419792175293
1748142660742298400,6.91129833984375,-5.724855899810791,-7.118679523468018,3.5758321285247803
1748142660760562200,6.929562255859375,-5.719935894012451,-7.130527973175049,3.5600597858428955
1748142660778827800,6.947827880859375,-5.574706554412842,-7.222558498382568,3.604642629623413
1748142660797092400,6.96609228515625,-5.300085544586182,-7.384971618652344,3.6888277530670166
1748142660815358200,6.984358154296875,-4.9225382804870605,-7.603847503662109,3.766465187072754
1748142660833623000,7.002623046875,-4.467148780822754,-7.8610358238220215,3.8058905601501465
1748142660851887900,7.020887939453125,-3.9710378646850586,-8.144632339477539,3.759244680404663
1748142660870153000,7.039153076171875,-3.488858699798584,-8.421737670898438,3.6246838569641113
1748142660888418600,7.05741845703125,-3.1091275215148926,-8.629796981811523,3.4779443740844727
1748142660906682000,7.07568212890625,-3.0755677223205566,-8.683781623840332,3.37178897857666
1748142660924950000,7.093949951171875,-3.1666653156280518,-8.658632278442383,3.352079153060913
1748142660952347100,7.12134716796875,-3.2072575092315674,-8.581530570983887,3.5081324577331543
1748142660970612000,7.139612060546875,-3.1693413257598877,-8.538731575012207,3.644378423690796
1748142660988876500,7.15787646484375,-3.1476759910583496,-8.518716812133789,3.7094099521636963
1748142661007140400,7.176140380859375,-3.193207025527954,-8.522387504577637,3.6617581844329834
1748142661025409000,7.194408935546875,-3.202742338180542,-8.56235122680664,3.558755397796631
1748142661043669000,7.2126689453125,-3.0583598613739014,-8.609034538269043,3.573108434677124
1748142661071070200,7.2400703125,-2.5408709049224854,-8.736933708190918,3.666896104812622
1748142661089335300,7.258335205078125,-2.1400516033172607,-8.867281913757324,3.609375476837158
1748142661107600400,7.276600341796875,-1.7467337846755981,-9.01842212677002,3.442833662033081
1748142661125865700,7.29486572265625,-1.4180668592453003,-9.121870994567871,3.3191375732421875
1748142661144131000,7.313131103515625,-1.195327877998352,-9.156585693359375,3.311227560043335
1748142661162396000,7.33139599609375,-1.0449024438858032,-9.157269477844238,3.359870433807373
1748142661180660000,7.349659912109375,-0.806099534034729,-9.180060386657715,3.3634560108184814
1748142661198915300,7.367915283203125,-0.6299117803573608,-9.195021629333496,3.360191583633423
1748142661217187000,7.38618701171875,-0.6071421504020691,-9.189798355102539,3.3786239624023438
1748142661235455200,7.404455322265625,-0.6205819845199585,-9.189103126525879,3.3780770301818848
1748142661253723100,7.42272314453125,-0.5896689295768738,-9.202853202819824,3.3460259437561035
1748142661271987000,7.440987060546875,-0.5008684396743774,-9.229084014892578,3.28774356842041
1748142661290248000,7.459248046875,-0.3459990620613098,-9.261666297912598,3.2152717113494873
1748142661308517400,7.477517333984375,-0.13503384590148926,-9.295112609863281,3.1334903240203857
1748142661326782700,7.49578271484375,0.09690415859222412,-9.322586059570312,3.0522327423095703
1748142661345047800,7.5140478515625,0.30825352668762207,-9.338868141174316,2.987751007080078
1748142661363313000,7.53231298828125,0.469924658536911,-9.348071098327637,2.9374897480010986
1748142661381578000,7.550577880859375,0.5965487360954285,-9.355681419372559,2.8898916244506836
1748142661399842000,7.568842041015625,0.7202059626579285,-9.368185997009277,2.8203723430633545
1748142661418109200,7.587109130859375,0.8413354158401489,-9.388458251953125,2.7175638675689697
1748142661436373800,7.605373779296875,0.9478059411048889,-9.410238265991211,2.6048367023468018
1748142661454638600,7.623638671875,1.069841980934143,-9.430803298950195,2.4802215099334717
1748142661472899300,7.6418994140625,1.1699028015136719,-9.453076362609863,2.3466575145721436
1748142661491167700,7.660167724609375,1.1533558368682861,-9.481733322143555,2.2366554737091064
1748142661509435000,7.678434814453125,1.0617637634277344,-9.506591796875,2.175658941268921
1748142661527699700,7.69669970703125,0.9617800116539001,-9.516165733337402,2.1802914142608643
1748142661545964300,7.71496435546875,0.823176920413971,-9.508761405944824,2.2675859928131104
1748142661564224800,7.733224853515625,0.5353085398674011,-9.491086959838867,2.4225690364837646
1748142661582495500,7.75149560546875,0.06420652568340302,-9.459577560424805,2.5977718830108643
1748142661600759300,7.76975927734375,-0.5363379120826721,-9.401727676391602,2.748809814453125
1748142661619025200,7.788025146484375,-1.2359362840652466,-9.304292678833008,2.852847099304199
1748142661637290500,7.80629052734375,-1.958424687385559,-9.157381057739258,2.922848701477051
1748142661655555300,7.824555419921875,-2.555183172225952,-8.976030349731445,3.0229146480560303
1748142661673820700,7.842820556640625,-2.9123151302337646,-8.799700736999512,3.212440013885498
1748142661692085800,7.861085693359375,-3.1216230392456055,-8.66547966003418,3.37654447555542
1748142661710350600,7.8793505859375,-3.3510196208953857,-8.553215026855469,3.44227933883667
1748142661728612400,7.8976123046875,-3.6444544792175293,-8.435471534729004,3.434662103652954
1748142661746880000,7.9158798828125,-3.9661805629730225,-8.312018394470215,3.3787429332733154
1748142661765147600,7.934147705078125,-4.2675251960754395,-8.194194793701172,3.2984132766723633
1748142661783411700,7.95241162109375,-4.5193257331848145,-8.088736534118652,3.2224409580230713
1748142661801675300,7.97067529296875,-4.706737995147705,-7.985958099365234,3.2104921340942383
1748142661819942100,7.988942138671875,-4.83150053024292,-7.8662309646606445,3.3189046382904053
1748142661838209300,8.007209228515626,-4.885856628417969,-7.737223148345947,3.535522937774658
1748142661856472300,8.025472412109375,-4.874218940734863,-7.637496471405029,3.7612144947052
1748142661874737400,8.0437373046875,-4.844791889190674,-7.5720906257629395,3.9277894496917725
1748142661893002800,8.062002685546876,-4.841887474060059,-7.542287349700928,3.9882516860961914
1748142661911268400,8.080268310546876,-4.838873863220215,-7.561966419219971,3.954498052597046
1748142661929533200,8.098533203125,-4.772647857666016,-7.636709690093994,3.8908352851867676
1748142661947797800,8.1167978515625,-4.605336666107178,-7.7709245681762695,3.8261849880218506
1748142661966063400,8.1350634765625,-4.342499256134033,-7.955966949462891,3.7525198459625244
1748142661984334600,8.15333447265625,-3.9927620887756348,-8.1873197555542,3.6416661739349365
1748142662002592500,8.171592529296875,-3.5496697425842285,-8.454760551452637,3.486117362976074
1748142662020859600,8.189859619140625,-3.021394968032837,-8.737810134887695,3.2799384593963623
1748142662039124000,8.2081240234375,-2.7330539226531982,-8.910355567932129,3.0613932609558105
1748142662057388800,8.226388916015624,-2.9064364433288574,-8.868785858154297,3.0221543312072754
1748142662075648500,8.2446484375,-3.059143304824829,-8.755419731140137,3.1969316005706787
1748142662093919200,8.262919189453125,-3.035240411758423,-8.636909484863281,3.5252304077148438
1748142662112187000,8.281186767578125,-2.9054620265960693,-8.576482772827148,3.773376703262329
1748142662130450200,8.2994501953125,-2.879014253616333,-8.576656341552734,3.793203353881836
1748142662148715300,8.31771533203125,-3.017674684524536,-8.558136940002441,3.7266664505004883
1748142662166980000,8.33597998046875,-3.1839418411254883,-8.555118560791016,3.5928540229797363
1748142662185241000,8.354240966796874,-3.25736927986145,-8.575089454650879,3.477573871612549
1748142662203510500,8.372510498046875,-3.2023415565490723,-8.617743492126465,3.4228103160858154
1748142662221776000,8.39077587890625,-3.0451431274414062,-8.691811561584473,3.3787038326263428
1748142662240034800,8.409034912109375,-2.804999589920044,-8.785074234008789,3.3452372550964355
1748142662258306000,8.42730615234375,-2.5202138423919678,-8.872511863708496,3.341134786605835
1748142662276572400,8.445572509765626,-2.126063108444214,-8.95677661895752,3.3900041580200195
1748142662294836500,8.46383642578125,-1.6049473285675049,-9.045462608337402,3.440911054611206
1748142662313101600,8.4821015625,-1.1364809274673462,-9.130941390991211,3.401533842086792
1748142662331362000,8.500362060546875,-0.8544864058494568,-9.188669204711914,3.327808141708374
1748142662349632500,8.518632568359376,-0.7558690309524536,-9.21469497680664,3.279352903366089
1748142662367896300,8.536896240234375,-0.7113258242607117,-9.232355117797852,3.2394096851348877
1748142662386162200,8.555162109375,-0.6056651473045349,-9.251140594482422,3.2071290016174316
1748142662404423400,8.57342333984375,-0.4409230649471283,-9.270700454711914,3.1773953437805176
1748142662422693400,8.591693359375,-0.2521325349807739,-9.287382125854492,3.1491434574127197
1748142662440959000,8.609958984375,-0.023234790191054344,-9.29780101776123,3.12833309173584
1748142662459218000,8.628218017578124,0.2113104909658432,-9.305353164672852,3.098689079284668
1748142662477488400,8.64648828125,0.36121323704719543,-9.316323280334473,3.051522731781006
1748142662495753500,8.66475341796875,0.43816521763801575,-9.328010559082031,3.0053844451904297
1748142662514018300,8.683018310546874,0.5297253131866455,-9.340694427490234,2.9507486820220947
1748142662532283600,8.70128369140625,0.6701479554176331,-9.353673934936523,2.8802437782287598
1748142662550548700,8.719548828125,0.8501346111297607,-9.364840507507324,2.795201539993286
1748142662568814000,8.73781396484375,1.0512466430664062,-9.375784873962402,2.6880605220794678
1748142662587071500,8.756071533203125,1.2299586534500122,-9.38619327545166,2.5734593868255615
1748142662605345800,8.774345703125,1.3434984683990479,-9.402653694152832,2.4538168907165527
1748142662623607800,8.79260791015625,1.3785500526428223,-9.421064376831055,2.3620474338531494
1748142662641877800,8.810877685546876,1.3502755165100098,-9.439970970153809,2.3021368980407715
1748142662660137000,8.829136962890624,1.3052515983581543,-9.457403182983398,2.2560908794403076
1748142662678408000,8.847407958984375,1.2437533140182495,-9.473180770874023,2.2244200706481934
1748142662696669000,8.8656689453125,1.0728760957717896,-9.495290756225586,2.219125270843506
1748142662714936300,8.883936279296876,0.7097963094711304,-9.513117790222168,2.2875559329986572
1748142662733203700,8.90220361328125,0.1926131397485733,-9.503705978393555,2.4245798587799072
1748142662751465700,8.9204658203125,-0.41484594345092773,-9.451837539672852,2.5936100482940674
1748142662769730800,8.938730712890624,-1.0908265113830566,-9.347119331359863,2.7708423137664795
1748142662787996000,8.956995849609376,-1.7982641458511353,-9.178200721740723,2.960237503051758
1748142662806269000,8.97526904296875,-2.4505774974823,-8.95644760131836,3.1643104553222656
1748142662824522200,8.993522216796874,-2.9691765308380127,-8.72705364227295,3.355391502380371
1748142662842791400,9.01179150390625,-3.324789524078369,-8.53685474395752,3.507702112197876
1748142662861055700,9.0300556640625,-3.539581537246704,-8.404592514038086,3.6152870655059814
1748142662879322400,9.048322265625,-3.7017688751220703,-8.316084861755371,3.657283306121826
1748142662897587200,9.066587158203125,-3.885023355484009,-8.252142906188965,3.6117639541625977
1748142662915849700,9.084849609375,-4.114356994628906,-8.185033798217773,3.509042263031006
1748142662934117400,9.103117431640625,-4.3787713050842285,-8.085658073425293,3.41827654838562
1748142662952382200,9.12138232421875,-4.635648727416992,-7.954030513763428,3.388256311416626
1748142662970646800,9.139646728515626,-4.828773021697998,-7.819280624389648,3.431899070739746
1748142662988913700,9.15791357421875,-4.938974380493164,-7.716208457946777,3.507537841796875
1748142663007178000,9.176177978515625,-4.996577739715576,-7.650708198547363,3.5688953399658203
1748142663025443000,9.194443115234375,-5.047749996185303,-7.595662593841553,3.61417555809021
1748142663043708400,9.21270849609375,-5.083096027374268,-7.5551042556762695,3.64947772026062
1748142663061973200,9.23097314453125,-5.0311689376831055,-7.573082447052002,3.684004783630371
1748142663080234500,9.249234375,-4.8643598556518555,-7.65561580657959,3.7370705604553223
1748142663098499000,9.2674990234375,-4.618520736694336,-7.7858099937438965,3.779756784439087
1748142663116768000,9.28576806640625,-4.308467864990234,-7.959829807281494,3.783431053161621
1748142663135035100,9.30403515625,-3.9074697494506836,-8.182613372802734,3.743344306945801
1748142663153299200,9.32229931640625,-3.395536422729492,-8.447358131408691,3.6535720825195312
1748142663171564500,9.340564453125,-2.8481147289276123,-8.712639808654785,3.494896173477173
1748142663189828900,9.358828857421875,-2.6937694549560547,-8.834996223449707,3.3049309253692627
1748142663208095700,9.377095703125,-2.880927085876465,-8.798690795898438,3.243368148803711
1748142663226360000,9.395360107421874,-3.0159480571746826,-8.723955154418945,3.321561813354492
1748142663244621600,9.41362158203125,-3.0400140285491943,-8.652189254760742,3.483396053314209
1748142663262890500,9.431890380859375,-3.0017194747924805,-8.616848945617676,3.602185010910034
1748142663281155600,9.450155517578125,-2.9643843173980713,-8.624842643737793,3.6139519214630127
1748142663299417900,9.46841796875,-2.9932303428649902,-8.647407531738281,3.5354013442993164
1748142663317687600,9.4866875,-2.9662139415740967,-8.682892799377441,3.4706051349639893
1748142663335952100,9.5049521484375,-2.653529167175293,-8.737789154052734,3.584122896194458
1748142663354212000,9.523212158203124,-2.1018545627593994,-8.81669807434082,3.752885341644287
1748142663372480300,9.541480224609375,-1.6415637731552124,-8.901566505432129,3.7819979190826416
1748142663390748000,9.559747802734375,-1.4088399410247803,-8.983407974243164,3.680986166000366
1748142663409008600,9.578008544921875,-1.3210699558258057,-9.07641887664795,3.4798688888549805
1748142663427277000,9.596277099609376,-1.260302186012268,-9.164196014404297,3.265773296356201
1748142663445537300,9.614537353515624,-1.2156028747558594,-9.21407413482666,3.1399502754211426
1748142663463806200,9.63280615234375,-1.2027772665023804,-9.221892356872559,3.1218817234039307
1748142663482059300,9.651059326171875,-1.176396131515503,-9.216121673583984,3.1488609313964844
1748142663500340500,9.669340576171875,-0.856328547000885,-9.264139175415039,3.111029624938965
1748142663518603000,9.68760302734375,-0.22835862636566162,-9.324251174926758,3.0401134490966797
1748142663536868000,9.7058681640625,0.21417751908302307,-9.340875625610352,2.989691972732544
1748142663555133200,9.72413330078125,0.17210695147514343,-9.34929084777832,2.9660139083862305
1748142663573398300,9.742398193359374,-0.03631427884101868,-9.370011329650879,2.904771327972412
1748142663591662300,9.760662353515626,-0.030130703002214432,-9.396341323852539,2.818510055541992
1748142663609928200,9.77892822265625,0.15788038074970245,-9.419872283935547,2.7344510555267334
1748142663628195300,9.7971953125,0.3491460382938385,-9.443501472473145,2.633341073989868
1748142663646459100,9.815459228515625,0.5058887004852295,-9.465422630310059,2.527048110961914
1748142663664724000,9.833723876953124,0.6889770030975342,-9.478388786315918,2.433431625366211
1748142663682989300,9.8519892578125,0.9288613796234131,-9.4785795211792,2.3515663146972656
1748142663701249800,9.870249755859374,1.197490930557251,-9.469022750854492,2.267099380493164
1748142663719519700,9.888519775390625,1.4831593036651611,-9.45187759399414,2.167569875717163
1748142663737784800,9.906784912109375,1.725852131843567,-9.433771133422852,2.0643460750579834
1748142663756050000,9.9250498046875,1.8293899297714233,-9.429474830627441,1.9936002492904663
1748142663774315500,9.9433154296875,1.7856802940368652,-9.44443130493164,1.962192177772522
1748142663792580600,9.96158056640625,1.701820969581604,-9.463908195495605,1.9427748918533325
1748142663810845200,9.97984521484375,1.6191260814666748,-9.479507446289062,1.9373915195465088
1748142663829110800,9.99811083984375,1.513908863067627,-9.491936683654785,1.9614589214324951
1748142663847376000,10.0163759765625,1.3488867282867432,-9.494184494018555,2.06811785697937
1748142663865640200,10.03464013671875,1.010172963142395,-9.498099327087402,2.2364630699157715
1748142663883907300,10.0529072265625,0.47374215722084045,-9.484038352966309,2.462660312652588
1748142663902171600,10.071171630859375,-0.17106527090072632,-9.432767868041992,2.688817024230957
1748142663920436500,10.0894365234375,-0.8468517065048218,-9.360235214233398,2.8115811347961426
1748142663938702000,10.1077021484375,-1.4969465732574463,-9.270207405090332,2.838757276535034
1748142663956954600,10.12595458984375,-2.023921489715576,-9.150320053100586,2.900257110595703
1748142663975226000,10.14422607421875,-2.3824973106384277,-9.012407302856445,3.0555410385131836
1748142663993482200,10.162482177734375,-2.652752637863159,-8.869402885437012,3.245415687561035
1748142664011762000,10.180761962890625,-2.965271234512329,-8.701132774353027,3.4254305362701416
1748142664030026200,10.199026123046876,-3.3332576751708984,-8.523435592651367,3.5322165489196777
1748142664057425000,10.2264248046875,-3.8536036014556885,-8.288820266723633,3.561082601547241
1748142664075690200,10.244690185546874,-4.117541790008545,-8.15507984161377,3.5744426250457764
1748142664093956400,10.262956298828126,-4.298986434936523,-8.048758506774902,3.601717233657837
1748142664112216000,10.281216064453124,-4.409152030944824,-7.96720027923584,3.6495494842529297
1748142664130485800,10.29948583984375,-4.473356246948242,-7.894328594207764,3.7289071083068848
1748142664148752000,10.317751953125,-4.513815879821777,-7.825072288513184,3.8249003887176514
1748142664167015700,10.336015625,-4.547207832336426,-7.765315532684326,3.906266450881958
1748142664185281800,10.35428173828125,-4.57763147354126,-7.72933292388916,3.9419338703155518
1748142664203535000,10.37253515625,-4.578214645385742,-7.743785381317139,3.9127838611602783
1748142664221816800,10.39081689453125,-4.516347408294678,-7.812137603759766,3.8482720851898193
1748142664240076300,10.409076171875,-4.387202262878418,-7.914656162261963,3.7877182960510254
1748142664258337800,10.427337890625,-4.183509826660156,-8.048070907592773,3.7367048263549805
1748142664276607000,10.44560693359375,-3.8587894439697266,-8.243392944335938,3.659554958343506
1748142664294873300,10.463873291015625,-3.378065586090088,-8.511401176452637,3.51863956451416
1748142664313137000,10.482136962890625,-2.881117582321167,-8.787519454956055,3.273338794708252
1748142664331403300,10.5004033203125,-2.875373363494873,-8.884942054748535,3.004357099533081
1748142664349666600,10.51866650390625,-2.9525372982025146,-8.848037719726562,3.038240909576416
1748142664367935000,10.53693505859375,-2.9467451572418213,-8.783913612365723,3.224234104156494
1748142664386200600,10.55520068359375,-2.8832437992095947,-8.740154266357422,3.3959834575653076
1748142664404444000,10.57344384765625,-2.8307042121887207,-8.742916107177734,3.43287992477417
1748142664422731300,10.591731201171875,-2.907386541366577,-8.749713897705078,3.350477695465088
1748142664440994600,10.60999462890625,-3.071600914001465,-8.737506866455078,3.2337799072265625
1748142664459254300,10.628254150390624,-3.0396065711975098,-8.743536949157715,3.2476866245269775
1748142664477524700,10.646524658203125,-2.690187931060791,-8.784367561340332,3.4400405883789062
1748142664495777000,10.664777099609376,-2.37576961517334,-8.827930450439453,3.5580191612243652
1748142664514050300,10.68305029296875,-2.2886369228363037,-8.863395690917969,3.526823043823242
1748142664532305200,10.70130517578125,-2.284611940383911,-8.91756534576416,3.390235424041748
1748142664550586400,10.71958642578125,-2.248440980911255,-8.983851432800293,3.235898017883301
1748142664568849400,10.737849365234375,-2.0868396759033203,-9.057327270507812,3.1378417015075684
1748142664587115300,10.756115234375,-1.7546656131744385,-9.134142875671387,3.1184446811676025
1748142664605379300,10.77437939453125,-1.3265540599822998,-9.201558113098145,3.1317291259765625
1748142664623645000,10.79264501953125,-0.9528307318687439,-9.254562377929688,3.111480712890625
1748142664641911300,10.810911376953126,-0.6907690167427063,-9.297940254211426,3.0507795810699463
1748142664660176600,10.8291767578125,-0.47776108980178833,-9.336928367614746,2.971470355987549
1748142664678440400,10.8474404296875,-0.2618851065635681,-9.36600112915039,2.9061248302459717
1748142664696706800,10.865706787109374,-0.06356567144393921,-9.387495040893555,2.8472824096679688
1748142664714970600,10.883970703125,0.10485724359750748,-9.398886680603027,2.8082144260406494
1748142664733233000,10.90223291015625,0.2567155957221985,-9.406952857971191,2.77117919921875
1748142664751500800,10.920500732421875,0.43396487832069397,-9.417754173278809,2.711765766143799
1748142664769767400,10.938767333984375,0.6775826811790466,-9.42851448059082,2.6229958534240723
1748142664788030700,10.95703076171875,0.9950243830680847,-9.430058479309082,2.5139689445495605
1748142664806299000,10.975298828125,1.3241804838180542,-9.419963836669922,2.3972761631011963
1748142664824573400,10.993573486328126,1.5558183193206787,-9.412110328674316,2.2864186763763428
1748142664842828000,11.011828125,1.6945369243621826,-9.414851188659668,2.1737608909606934
1748142664861092900,11.0300927734375,1.7801975011825562,-9.423563003540039,2.0648200511932373
1748142664879358200,11.048358154296874,1.8193844556808472,-9.4340181350708,1.9812253713607788
1748142664897622800,11.066622802734376,1.8360124826431274,-9.4420166015625,1.9270447492599487
1748142664915888400,11.084888427734375,1.8467633724212646,-9.449301719665527,1.8804999589920044
1748142664934153200,11.1031533203125,1.878641128540039,-9.453527450561523,1.826928734779358
1748142664952419000,11.121419189453125,1.9501534700393677,-9.453218460083008,1.7520495653152466
1748142664970682400,11.139682373046876,1.8666552305221558,-9.47525405883789,1.7237441539764404
1748142664988950300,11.1579501953125,1.6091786623001099,-9.504040718078613,1.8220568895339966
1748142665007209500,11.17620947265625,1.2951263189315796,-9.50939655303955,2.03228497505188
1748142665025475000,11.19447509765625,0.8944929242134094,-9.49414348602295,2.301574468612671
1748142665043743000,11.212742919921874,0.3975352644920349,-9.454570770263672,2.586344003677368
1748142665062011100,11.23101123046875,-0.21508048474788666,-9.396601676940918,2.8095836639404297
1748142665080274700,11.249274658203126,-0.8824384212493896,-9.316571235656738,2.9426016807556152
1748142665098540800,11.267540771484375,-1.5518888235092163,-9.189775466918945,3.0619919300079346
1748142665116804600,11.2858046875,-2.1061980724334717,-9.004098892211914,3.275099992752075
1748142665135070700,11.30407080078125,-2.4823977947235107,-8.807162284851074,3.536630153656006
1748142665153335000,11.3223349609375,-2.87722110748291,-8.639710426330566,3.648714065551758
1748142665171601400,11.340601318359376,-3.2719290256500244,-8.488872528076172,3.6701083183288574
1748142665189864400,11.358864501953125,-3.587611436843872,-8.355684280395508,3.68072247505188
1748142665208132400,11.37713232421875,-3.8080978393554688,-8.258768081665039,3.677938938140869
1748142665226396200,11.395396240234374,-3.9460015296936035,-8.201586723327637,3.6604902744293213
1748142665244660500,11.413660400390626,-4.000647068023682,-8.17289924621582,3.6653308868408203
1748142665262927000,11.431927001953126,-3.9850616455078125,-8.14947509765625,3.7338273525238037
1748142665281190000,11.45018994140625,-3.92756724357605,-8.099692344665527,3.8993980884552
1748142665299457300,11.468457275390625,-3.8952243328094482,-7.997918605804443,4.13481330871582
1748142665317721900,11.486721923828124,-3.95957088470459,-7.87830114364624,4.300031661987305
1748142665335989500,11.504989501953125,-4.113179683685303,-7.790084362030029,4.31653356552124
1748142665354248400,11.52324853515625,-4.290423393249512,-7.738819599151611,4.2354559898376465
1748142665372512500,11.541512451171876,-4.410971641540527,-7.740358352661133,4.106863975524902
1748142665390782000,11.559781982421875,-4.361632823944092,-7.815566062927246,4.016122817993164
1748142665409036300,11.578036376953126,-4.1138529777526855,-7.968225479125977,3.9774041175842285
1748142665427313200,11.596313232421876,-3.7282602787017822,-8.176774978637695,3.934028387069702
1748142665445577700,11.61457763671875,-3.3708415031433105,-8.393022537231445,3.798776626586914
1748142665463843800,11.63284375,-3.3865649700164795,-8.468718528747559,3.612220525741577
1748142665482108000,11.65110791015625,-3.540318489074707,-8.395352363586426,3.6359775066375732
1748142665500374000,11.6693740234375,-3.6831576824188232,-8.30301570892334,3.7054543495178223
1748142665518638300,11.687638427734376,-3.8418283462524414,-8.207676887512207,3.7563982009887695
1748142665536904700,11.70590478515625,-4.01406717300415,-8.141192436218262,3.7208030223846436
1748142665555168800,11.724168701171875,-4.042331695556641,-8.137401580810547,3.6984260082244873
1748142665573434400,11.742434326171875,-4.0108842849731445,-8.17265510559082,3.6546707153320312
1748142665591699500,11.760699462890624,-4.0448784828186035,-8.294836044311523,3.327284574508667
1748142665609960700,11.778960693359375,-4.0446672439575195,-8.456011772155762,2.8935465812683105
1748142665628225300,11.797225341796874,-3.919497489929199,-8.510177612304688,2.906977653503418
1748142665646495200,11.8154951171875,-3.7258479595184326,-8.546297073364258,3.052046537399292
1748142665664760000,11.833760009765625,-3.4916670322418213,-8.637392044067383,3.0724289417266846
1748142665683025700,11.852025634765624,-3.207731008529663,-8.796671867370605,2.926633358001709
1748142665701289700,11.870289794921876,-2.8337812423706055,-8.98755931854248,2.725726366043091
1748142665719555600,11.8885556640625,-2.24398136138916,-9.182053565979004,2.6249911785125732
1748142665737820700,11.906820556640625,-1.6383132934570312,-9.32155990600586,2.58081316947937
1748142665756086500,11.92508642578125,-1.2785743474960327,-9.401860237121582,2.4912641048431396
1748142665774350800,11.943350830078124,-1.0841792821884155,-9.436153411865234,2.453505277633667
1748142665792616400,11.961616455078126,-0.8764545321464539,-9.452878952026367,2.472048044204712
1748142665810880500,11.979880615234375,-0.5377140641212463,-9.472799301147461,2.4926044940948486
1748142665829147000,11.99814697265625,-0.08151881396770477,-9.491861343383789,2.476701498031616
1748142665847411200,12.0164111328125,0.3602614402770996,-9.500984191894531,2.4161229133605957
1748142665865676000,12.034676025390626,0.678452730178833,-9.507523536682129,2.320091724395752
1748142665883938300,12.052938232421875,0.9035590291023254,-9.515625,2.2073960304260254
1748142665902204000,12.071203857421875,1.2155139446258545,-9.51148509979248,2.0712997913360596
1748142665920473000,12.08947314453125,1.6721243858337402,-9.47683334350586,1.9051990509033203
1748142665938738000,12.107738037109375,2.010725975036621,-9.443282127380371,1.7370989322662354
1748142665957002500,12.12600244140625,2.1876401901245117,-9.429604530334473,1.5915002822875977
1748142665975269600,12.14426953125,2.362837076187134,-9.409607887268066,1.4534145593643188
1748142665993532700,12.16253271484375,2.582963705062866,-9.369782447814941,1.3310116529464722
1748142666011798300,12.18079833984375,2.7951574325561523,-9.316242218017578,1.277043342590332
1748142666030063900,12.19906396484375,2.98625111579895,-9.252026557922363,1.310884952545166
1748142666048328400,12.217328369140626,3.1259689331054688,-9.197441101074219,1.3680251836776733
1748142666066593300,12.23559326171875,3.216409683227539,-9.17092227935791,1.336042046546936
1748142666084859100,12.253859130859375,3.3066599369049072,-9.151906967163086,1.2428580522537231
1748142666103124000,12.2721240234375,3.2696735858917236,-9.168587684631348,1.217519760131836
1748142666130521900,12.29952197265625,2.7652642726898193,-9.330263137817383,1.2391986846923828
1748142666148780800,12.31778076171875,2.2168710231781006,-9.460992813110352,1.3458219766616821
1748142666167052300,12.33605224609375,1.571829080581665,-9.559366226196289,1.5440068244934082
1748142666185312500,12.3543125,0.8773192167282104,-9.60654354095459,1.783470630645752
1748142666203570700,12.37257080078125,0.13798581063747406,-9.580757141113281,2.1038413047790527
1748142666221847300,12.390847412109375,-0.5968031287193298,-9.47142219543457,2.484379529953003
1748142666240113000,12.40911279296875,-1.1752337217330933,-9.318066596984863,2.8334672451019287
1748142666258378000,12.4273779296875,-1.417999267578125,-9.190260887145996,3.124826192855835
1748142666276642300,12.445642333984376,-1.4053122997283936,-9.105074882507324,3.3702876567840576
1748142666294909200,12.4639091796875,-1.4067752361297607,-8.976593971252441,3.6983604431152344
1748142666313173800,12.482173828125,-1.772189974784851,-8.72035026550293,4.129278182983398
1748142666331438300,12.500438232421875,-2.2558693885803223,-8.375774383544922,4.581876277923584
1748142666349702700,12.51870263671875,-2.692603349685669,-7.927289962768555,5.113129138946533
1748142666367968500,12.536968505859376,-3.0058865547180176,-7.393293380737305,5.704383850097656
1748142666386230500,12.55523046875,-3.1426985263824463,-6.9320878982543945,6.1891632080078125
1748142666404495400,12.573495361328124,-3.423092842102051,-6.595118045806885,6.404914379119873
1748142666422764800,12.591764892578125,-3.9384524822235107,-6.436836242675781,6.268320083618164
1748142666441024800,12.610024658203125,-4.375411510467529,-6.530422210693359,5.869027614593506
1748142666459295000,12.628294921875,-4.503041744232178,-6.800155162811279,5.451296806335449
1748142666477560000,12.64656005859375,-4.334839344024658,-7.125491619110107,5.1645588874816895
1748142666495825200,12.6648251953125,-4.006031513214111,-7.423825263977051,5.0074615478515625
1748142666514090500,12.683090576171875,-3.5982866287231445,-7.669061660766602,4.947117805480957
1748142666532355600,12.70135546875,-3.151719570159912,-7.848546981811523,4.970224380493164
1748142666550620700,12.71962060546875,-2.5704524517059326,-7.990494251251221,5.077492713928223
1748142666568885800,12.7378857421875,-1.93036687374115,-8.175461769104004,5.066716194152832
1748142666587151000,12.756151123046875,-1.2795673608779907,-8.431986808776855,4.847725868225098
1748142666605416200,12.774416259765625,-0.9477755427360535,-8.586555480957031,4.648538112640381
1748142666623680300,12.79268017578125,-1.1238834857940674,-8.63571834564209,4.51634407043457
1748142666641947600,12.81094775390625,-1.4954994916915894,-8.67226505279541,4.334904193878174
1748142666660207000,12.82920703125,-2.1195456981658936,-8.68343734741211,4.042468547821045
1748142666678465800,12.8474658203125,-3.132843017578125,-8.635615348815918,3.442033290863037
1748142666696736500,12.865736572265625,-4.18446159362793,-8.560535430908203,2.333162546157837
1748142666715006000,12.884005859375,-4.274914264678955,-8.735824584960938,1.2832010984420776
1748142666733273600,12.902273681640626,-4.240265369415283,-8.771533966064453,1.1473687887191772
1748142666751537400,12.920537353515625,-4.181612968444824,-8.740270614624023,1.5355373620986938
1748142666769802800,12.938802734375,-3.855398416519165,-8.7997465133667,1.9840515851974487
1748142666788067800,12.95706787109375,-3.1199944019317627,-9.001836776733398,2.338531970977783
1748142666806332700,12.975332763671876,-2.047973871231079,-9.22603988647461,2.6309969425201416
1748142666824594200,12.99359423828125,-0.9587074518203735,-9.357609748840332,2.784270763397217
1748142666842863000,13.011863037109375,-0.19430357217788696,-9.510641098022461,2.39709734916687
1748142666861128700,13.030128662109375,1.1575758457183838,-9.616424560546875,1.5558089017868042
1748142666879393500,13.0483935546875,2.1863362789154053,-9.521505355834961,0.8927395939826965
1748142666897657300,13.0666572265625,1.6776903867721558,-9.619986534118652,0.9366577863693237
1748142666915925200,13.08492529296875,1.4938911199569702,-9.638829231262207,1.0475430488586426
1748142666934185500,13.103185546875,1.9702696800231934,-9.539620399475098,1.161817193031311
1748142666952454100,13.1214541015625,2.452019691467285,-9.391295433044434,1.4238206148147583
1748142666970718200,13.13971826171875,2.6575496196746826,-9.2774658203125,1.7612977027893066
1748142666988985900,13.15798583984375,2.500782012939453,-9.271864891052246,2.003675699234009
1748142667007245800,13.176245849609375,2.0419814586639404,-9.34958267211914,2.1567869186401367
1748142667025515000,13.194514892578125,1.5518851280212402,-9.40915298461914,2.301215887069702
1748142667043779800,13.21277978515625,1.0771210193634033,-9.430723190307617,2.4773800373077393
1748142667062045200,13.231045166015624,0.42354118824005127,-9.42794132232666,2.67781138420105
1748142667080310500,13.249310546875,-0.32709282636642456,-9.37072467803955,2.884199380874634
1748142667098575600,13.26757568359375,-1.1839948892593384,-9.219806671142578,3.1351888179779053
1748142667125972700,13.29497265625,-2.4089958667755127,-8.527514457702637,4.208842754364014
1748142667144234200,13.313234130859374,-2.567796468734741,-7.936122894287109,5.163378715515137
1748142667162503000,13.3315029296875,-2.4949660301208496,-7.639191627502441,5.626190185546875
1748142667180769000,13.34976904296875,-2.3988301753997803,-7.32720422744751,6.065790176391602
1748142667199030300,13.3680302734375,-2.584550380706787,-6.901879787445068,6.474586486816406
1748142667217302800,13.386302734375,-3.0819547176361084,-6.529141426086426,6.641384601593018
1748142667235563500,13.4045634765625,-3.6261403560638428,-6.344829082489014,6.544492244720459
1748142667253825000,13.422824951171876,-4.146493434906006,-6.371500015258789,6.200540542602539
1748142667272093000,13.441093017578124,-4.60184383392334,-6.556488513946533,5.663181304931641
1748142667290361600,13.459361572265625,-4.884394645690918,-6.800279140472412,5.112240314483643
1748142667308624400,13.477624267578125,-4.975559234619141,-7.014249801635742,4.7201924324035645
1748142667326890200,13.49589013671875,-4.922657012939453,-7.158685207366943,4.5559611320495605
1748142667345155000,13.514155029296875,-4.704073905944824,-7.289763927459717,4.578993797302246
1748142667363421000,13.5324208984375,-4.152186870574951,-7.531002044677734,4.720109939575195
1748142667381684000,13.55068408203125,-3.2766590118408203,-7.8824992179870605,4.833826065063477
1748142667399950600,13.56895068359375,-2.249074935913086,-8.17162799835205,4.939868450164795
1748142667418212400,13.58721240234375,-1.165403962135315,-8.305299758911133,5.089198112487793
1748142667436481800,13.605481689453125,-0.5238617062568665,-8.331799507141113,5.151973247528076
1748142667454745300,13.623745361328124,-1.2835702896118164,-8.307907104492188,5.056403160095215
1748142667473007400,13.64200732421875,-2.6425538063049316,-8.168973922729492,4.74561882019043
1748142667491280600,13.66028076171875,-3.7107303142547607,-7.918614387512207,4.4454665184021
1748142667509537000,13.678537109375,-4.008308410644531,-7.774613380432129,4.441281318664551
1748142667527805200,13.69680517578125,-3.8241353034973145,-7.9668049812316895,4.25935697555542
1748142667546073300,13.7150732421875,-3.4879415035247803,-8.400940895080566,3.673502206802368
1748142667564337000,13.7333369140625,-3.155870199203491,-8.84131908416748,2.8473970890045166
1748142667582602800,13.751602783203126,-2.8112595081329346,-9.129497528076172,2.232762575149536
1748142667600866600,13.769866455078125,-2.236469268798828,-9.347090721130371,1.966273307800293
1748142667619133000,13.7881328125,-1.2220919132232666,-9.528593063354492,1.987095832824707
1748142667637397500,13.8063974609375,-0.23258894681930542,-9.601526260375977,1.9981759786605835
1748142667655662000,13.824662109375,0.5669337511062622,-9.668222427368164,1.5621074438095093
1748142667673928700,13.8429287109375,1.9417294263839722,-9.58846378326416,0.7260420918464661
1748142667692199000,13.861198974609374,2.0862507820129395,-9.585248947143555,0.08162720501422882
1748142667710457600,13.87945751953125,1.4848440885543823,-9.695686340332031,0.1581028699874878
1748142667728710700,13.897710693359375,1.673279881477356,-9.663900375366211,0.21282681822776794
1748142667746988000,13.915988037109376,2.1527044773101807,-9.566105842590332,0.30263933539390564
1748142667765256000,13.934255859375,2.532447576522827,-9.461579322814941,0.5489470362663269
1748142667783517400,13.952517333984375,2.570404052734375,-9.438765525817871,0.7340700030326843
1748142667801785600,13.97078564453125,2.3511059284210205,-9.484837532043457,0.863875150680542
1748142667820047400,13.98904736328125,1.9973396062850952,-9.54616641998291,1.057098150253296
1748142667838315500,14.0073154296875,1.5225231647491455,-9.608551979064941,1.262442708015442
1748142667856579600,14.02557958984375,0.9623625874519348,-9.657828330993652,1.4269922971725464
1748142667874845000,14.043844970703125,0.36487898230552673,-9.681853294372559,1.5377590656280518
1748142667893109200,14.062109130859374,-0.25064295530319214,-9.659480094909668,1.6934319734573364
1748142667911374600,14.08037451171875,-0.9452210068702698,-9.576066017150879,1.9083092212677002
1748142667929639200,14.09863916015625,-1.7584487199783325,-9.39849853515625,2.193676471710205
1748142667947906300,14.11690625,-3.0073494911193848,-8.886381149291992,2.8677871227264404
1748142667966170000,14.135170166015625,-3.5607104301452637,-8.126540184020996,4.185312747955322
1748142667984430800,14.153430908203125,-2.7714765071868896,-7.786555767059326,5.2843708992004395
1748142668002700800,14.17170068359375,-2.1982693672180176,-7.487874507904053,5.94436502456665
1748142668020966400,14.18996630859375,-2.5017096996307373,-7.0215959548950195,6.377674579620361
1748142668039224300,14.208224365234376,-3.336355209350586,-6.612401485443115,6.432809829711914
1748142668057497900,14.226497802734375,-4.142021179199219,-6.464961528778076,6.1060686111450195
1748142668075761200,14.24476123046875,-4.767744541168213,-6.648812294006348,5.41276741027832
1748142668094027000,14.263027099609374,-5.110267162322998,-7.027150630950928,4.554164886474609
1748142668112286000,14.281285888671874,-5.157805919647217,-7.441603183746338,3.775669574737549
1748142668130557200,14.29955712890625,-5.0240678787231445,-7.808572292327881,3.165611982345581
1748142668148821800,14.31782177734375,-4.805058479309082,-8.084827423095703,2.7898190021514893
1748142668167087600,14.336087646484375,-4.3937788009643555,-8.340413093566895,2.7144696712493896
1748142668185351700,14.3543515625,-3.8635876178741455,-8.558615684509277,2.838820219039917
1748142668203617500,14.372617431640625,-3.1940829753875732,-8.732282638549805,3.1274917125701904
1748142668221882000,14.390882080078125,-2.3446526527404785,-8.84106731414795,3.546020746231079
1748142668240148500,14.4091484375,-1.4188790321350098,-8.851831436157227,3.9834651947021484
1748142668258412500,14.42741259765625,-0.4518710970878601,-8.814712524414062,4.281681060791016
1748142668276672500,14.445672607421875,-0.9355267882347107,-8.803872108459473,4.225253105163574
1748142668294942700,14.463942626953125,-2.526134729385376,-8.68608570098877,3.7956125736236572
1748142668313206300,14.482206298828125,-3.7596347332000732,-8.519048690795898,3.086592435836792
1748142668331473200,14.50047314453125,-4.383254528045654,-8.378257751464844,2.613046646118164
1748142668349738800,14.51873876953125,-4.170475482940674,-8.506858825683594,2.544921398162842
1748142668368003600,14.537003662109376,-3.286945104598999,-8.950085639953613,2.3082613945007324
1748142668386270000,14.55527001953125,-2.1995139122009277,-9.404485702514648,1.7186949253082275
1748142668404532700,14.57353271484375,-1.2553473711013794,-9.631484031677246,1.3764960765838623
1748142668422799600,14.591799560546875,-0.40965813398361206,-9.696892738342285,1.427775502204895
1748142668441064400,14.610064453125,0.3934740722179413,-9.613205909729004,1.91509211063385
1748142668459330000,14.628330078125,1.0305390357971191,-9.56212043762207,1.9338980913162231
1748142668477594000,14.646593994140625,2.028247356414795,-9.51525592803955,1.2578837871551514
1748142668495860200,14.664860107421875,2.5789260864257812,-9.457876205444336,0.3658146858215332
1748142668514124500,14.68312451171875,2.2519335746765137,-9.547399520874023,0.1098601222038269
1748142668532391000,14.701390869140624,2.236530065536499,-9.549666404724121,0.19467471539974213
1748142668550654000,14.719654052734375,2.611576795578003,-9.451105117797852,0.3039466142654419
1748142668568921000,14.737921142578125,2.9862842559814453,-9.3256254196167,0.5923919677734375
1748142668587186200,14.756186279296875,3.0613887310028076,-9.273900032043457,0.9267220497131348
1748142668605451000,14.774450927734375,2.814438581466675,-9.320104598999023,1.2044426202774048
1748142668623710500,14.79271044921875,2.4351537227630615,-9.385828018188477,1.4874107837677002
1748142668641980000,14.81097998046875,1.9980971813201904,-9.444124221801758,1.7470636367797852
1748142668660242700,14.82924267578125,1.5192415714263916,-9.493056297302246,1.9518885612487793
1748142668678512000,14.84751220703125,0.9706258773803711,-9.53641128540039,2.085869312286377
1748142668696776000,14.86577587890625,0.3410382866859436,-9.547395706176758,2.228686571121216
1748142668715042000,14.8840419921875,-0.3717772364616394,-9.502925872802734,2.4067211151123047
1748142668733306600,14.902306640625,-1.3092635869979858,-9.319637298583984,2.768810510635376
1748142668751572500,14.920572509765625,-2.671999216079712,-8.704761505126953,3.6501574516296387
1748142668769835300,14.938835205078124,-3.2356655597686768,-7.789753437042236,5.008626461029053
1748142668788103400,14.957103515625,-2.620164632797241,-7.342344760894775,5.954899311065674
1748142668806370800,14.975370849609375,-2.4506866931915283,-7.0289082527160645,6.389422416687012
1748142668824635000,14.993634765625,-2.8105340003967285,-6.665032863616943,6.626791477203369
1748142668842884000,15.011884033203126,-3.5273313522338867,-6.281241416931152,6.65883207321167
1748142668861163300,15.030163330078125,-4.3114471435546875,-6.023612976074219,6.431455612182617
1748142668879422700,15.048422607421875,-4.971949577331543,-6.0815043449401855,5.8763227462768555
1748142668897692700,15.066692626953126,-5.430883407592773,-6.389558792114258,5.090688705444336
1748142668915958800,15.084958740234375,-5.5685272216796875,-6.828756332397461,4.312276840209961
1748142668934219000,15.103218994140626,-5.407281398773193,-7.283958911895752,3.7338154315948486
1748142668952488200,15.12148828125,-5.078372955322266,-7.654250144958496,3.4436471462249756
1748142668970754000,15.139754150390624,-4.632017135620117,-7.961048603057861,3.376725673675537
1748142668989017900,15.158017822265625,-4.009658336639404,-8.251184463500977,3.475154399871826
1748142669007284500,15.176284423828125,-3.262216329574585,-8.459303855895996,3.746234655380249
1748142669025548800,15.194548828125,-2.3505642414093018,-8.603069305419922,4.086343288421631
1748142669043814700,15.212814697265625,-1.3360265493392944,-8.649439811706543,4.431519508361816
1748142669062078700,15.23107861328125,-0.36340197920799255,-8.634029388427734,4.6430134773254395
1748142669080345000,15.249344970703126,-1.3744009733200073,-8.555131912231445,4.599656105041504
1748142669107742500,15.276742431640624,-3.709184408187866,-8.329753875732422,3.6184651851654053
1748142669126008800,15.2950087890625,-4.357140064239502,-8.335188865661621,2.788555145263672
1748142669144268800,15.313268798828124,-4.2153167724609375,-8.590470314025879,2.161269187927246
1748142669162537700,15.331537841796875,-3.4091782569885254,-9.025782585144043,1.7745031118392944
1748142669180798200,15.349798095703125,-2.6681244373321533,-9.3294677734375,1.4416131973266602
1748142669199067600,15.368067626953126,-1.9870190620422363,-9.52306842803955,1.264533519744873
1748142669217333200,15.386333251953126,-1.2419898509979248,-9.636358261108398,1.3543248176574707
1748142669235598300,15.404598388671875,-0.24710626900196075,-9.66685962677002,1.6513246297836304
1748142669262996500,15.43199658203125,1.02699875831604,-9.589210510253906,1.796787142753601
1748142669281268500,15.4502685546875,2.0922458171844482,-9.532382011413574,0.9961543679237366
1748142669299526700,15.468526611328125,2.7808496952056885,-9.40682315826416,0.12106543779373169
1748142669317791500,15.48679150390625,2.4771769046783447,-9.491841316223145,0.06810091435909271
1748142669336057000,15.50505712890625,2.201982259750366,-9.558028221130371,0.177444726228714
1748142669354321400,15.5233212890625,2.554738998413086,-9.46917724609375,0.21005596220493317
1748142669372587500,15.54158740234375,2.983548402786255,-9.34069538116455,0.29320046305656433
1748142669390851600,15.5598515625,3.2562551498413086,-9.241132736206055,0.4841388165950775
1748142669409117400,15.578117431640624,3.1879985332489014,-9.248990058898926,0.7272897362709045
1748142669427381800,15.5963818359375,2.6889266967773438,-9.383548736572266,0.9771365523338318
1748142669445646800,15.614646728515625,2.0600199699401855,-9.514843940734863,1.208377480506897
1748142669463913700,15.632913818359375,1.6250386238098145,-9.570149421691895,1.416911005973816
1748142669482178600,15.651178466796875,1.1815751791000366,-9.601604461669922,1.6276299953460693
1748142669500442600,15.669442626953124,0.5844438672065735,-9.613972663879395,1.8617419004440308
1748142669518708500,15.68770849609375,-0.11324946582317352,-9.575945854187012,2.1271018981933594
1748142669536973000,15.70597314453125,-0.9356729388237,-9.456710815429688,2.435420036315918
1748142669555234300,15.724234375,-2.0635926723480225,-9.139969825744629,2.904935836791992
1748142669573503000,15.7425029296875,-2.642549514770508,-8.721492767333984,3.6316139698028564
1748142669591769000,15.76076904296875,-2.0992274284362793,-8.46033000946045,4.500240325927734
1748142669610032000,15.7790322265625,-1.6516666412353516,-8.146604537963867,5.209697246551514
1748142669628300000,15.797300048828125,-1.639359712600708,-7.803766250610352,5.714004993438721
1748142669646559500,15.8155595703125,-1.9400439262390137,-7.505256652832031,6.011943817138672
1748142669664828700,15.83382861328125,-2.4784324169158936,-7.255568504333496,6.119659900665283
1748142669683095300,15.85209521484375,-3.2040138244628906,-7.178785800933838,5.868173122406006
1748142669701359900,15.87035986328125,-3.87276554107666,-7.310357093811035,5.272238254547119
1748142669719624200,15.888624267578125,-4.312249660491943,-7.528090000152588,4.579136371612549
1748142669737890000,15.90689013671875,-4.478596210479736,-7.763217449188232,3.9888339042663574
1748142669756154600,15.925154541015624,-4.443910598754883,-7.957325458526611,3.6288838386535645
1748142669774416000,15.943415771484375,-4.268856525421143,-8.100987434387207,3.519517660140991
1748142669792683800,15.961683837890625,-3.760892391204834,-8.275116920471191,3.6897451877593994
1748142669810951200,15.979951171875,-3.0708577632904053,-8.438830375671387,3.948683977127075
1748142669829211100,15.998211181640626,-2.262721061706543,-8.541975021362305,4.2603864669799805
1748142669847480800,16.016480712890626,-1.265522837638855,-8.642134666442871,4.466325283050537
1748142669865745400,16.034745361328124,-0.2200421392917633,-8.684974670410156,4.5561981201171875
1748142669883997400,16.05299755859375,-0.08811520785093307,-8.602347373962402,4.714651584625244
1748142669902277600,16.071277587890624,-1.9260413646697998,-8.418303489685059,4.653887748718262
1748142669920541400,16.08954150390625,-3.753420829772949,-8.163681030273438,3.937288284301758
1748142669938805800,16.1078056640625,-4.43949556350708,-8.154839515686035,3.1663177013397217
1748142669957071400,16.1260712890625,-3.77638578414917,-8.54345989227295,2.997386932373047
1748142669975336400,16.14433642578125,-3.0627951622009277,-8.931252479553223,2.66235089302063
1748142669993597400,16.162597412109374,-2.6215102672576904,-9.222026824951172,2.077988862991333
1748142670011864600,16.180864501953124,-2.026416063308716,-9.471563339233398,1.5554044246673584
1748142670030133200,16.19913330078125,-1.1443703174591064,-9.681553840637207,1.0927306413650513
1748142670048396800,16.217396728515624,0.02564910426735878,-9.77835750579834,0.7868794202804565
1748142670066661600,16.23566162109375,1.0651737451553345,-9.721738815307617,0.7676903605461121
1748142670084928000,16.253927978515627,1.753052830696106,-9.61984634399414,0.7883491516113281
1748142670103193000,16.272193115234376,2.3223917484283447,-9.519281387329102,0.4752964973449707
1748142670121457400,16.29045751953125,2.608781337738037,-9.449821472167969,-0.3622525632381439
1748142670139723000,16.308722900390624,2.1131839752197266,-9.56274127960205,-0.5696872472763062
1748142670157987800,16.32698779296875,2.1464431285858154,-9.559062004089355,-0.5032261610031128
1748142670176249000,16.3452490234375,2.5041093826293945,-9.478717803955078,-0.3456486761569977
1748142670194513700,16.363513671875,2.8292367458343506,-9.393048286437988,-0.046541351824998856
1748142670212783900,16.381783935546874,3.032008647918701,-9.323930740356445,0.32764992117881775
1748142670231048000,16.4000478515625,2.765662431716919,-9.39902400970459,0.49556586146354675
1748142670249309400,16.418309326171876,2.2098031044006348,-9.540305137634277,0.5791857242584229
1748142670267578600,16.43657861328125,1.6133143901824951,-9.648475646972656,0.735023558139801
1748142670285844700,16.4548447265625,1.0247968435287476,-9.709442138671875,0.9553283452987671
1748142670304103200,16.473103271484376,0.43289437890052795,-9.718164443969727,1.2672678232192993
1748142670322374700,16.491374755859376,-0.23153454065322876,-9.664361000061035,1.668113350868225
1748142670340639000,16.509638916015625,-1.011321783065796,-9.531782150268555,2.0876922607421875
1748142670358905300,16.5279052734375,-2.2169997692108154,-9.240461349487305,2.4361677169799805
1748142670377169200,16.546169189453124,-3.101163864135742,-8.914125442504883,2.675311803817749
1748142670395435000,16.56443505859375,-3.0151498317718506,-8.72768497467041,3.3124771118164062
1748142670413699800,16.582699951171875,-2.7002294063568115,-8.48830795288086,4.110169887542725
1748142670431965400,16.60096533203125,-2.541936159133911,-8.167374610900879,4.802988052368164
1748142670450224600,16.619224609375,-2.7124381065368652,-7.74921178817749,5.3692193031311035
1748142670468495600,16.63749560546875,-3.1808183193206787,-7.370764255523682,5.638294696807861
1748142670486760400,16.655760498046874,-3.7453174591064453,-7.179874897003174,5.536975383758545
1748142670505021200,16.674021240234374,-4.1826090812683105,-7.2230448722839355,5.154566287994385
1748142670523289000,16.6922890625,-4.401646614074707,-7.3991923332214355,4.702508926391602
1748142670541557200,16.71055712890625,-4.45055627822876,-7.617911338806152,4.289065361022949
1748142670559821800,16.72882177734375,-4.366623878479004,-7.834424018859863,3.9737305641174316
1748142670578085600,16.747085693359374,-4.1601948738098145,-8.014717102050781,3.833169937133789
1748142670596350700,16.765350830078123,-3.764346122741699,-8.18185806274414,3.888836622238159
1748142670614612700,16.78361279296875,-3.1214990615844727,-8.379312515258789,4.034782409667969
1748142670632881200,16.801881103515626,-2.375775098800659,-8.573613166809082,4.133397102355957
1748142670651147300,16.820147216796876,-1.6351584196090698,-8.700238227844238,4.227082252502441
1748142670669411000,16.8384111328125,-0.9103403091430664,-8.705475807189941,4.429681777954102
1748142670687676200,16.85667626953125,-0.5123222470283508,-8.743077278137207,4.419529438018799
1748142670705940000,16.87493994140625,-1.3977105617523193,-8.710628509521484,4.2903900146484375
1748142670724207900,16.893207763671874,-2.303863525390625,-8.570213317871094,4.180880546569824
1748142670742471700,16.9114716796875,-3.082829475402832,-8.332586288452148,4.159358501434326
1748142670760737800,16.92973779296875,-3.50740909576416,-8.200434684753418,4.084985256195068
1748142670779001300,16.94800146484375,-3.095341920852661,-8.561553001403809,3.6544175148010254
1748142670797270300,16.966270263671873,-1.685817003250122,-9.32677936553955,2.530874729156494
1748142670815532300,16.9845322265625,-0.4719322919845581,-9.667794227600098,1.595984697341919
1748142670833798700,17.002798583984376,0.11004679650068283,-9.712231636047363,1.3771591186523438
1748142670852063000,17.02106298828125,0.4782152771949768,-9.64340591430664,1.735552191734314
1748142670870328800,17.039328857421875,1.0467075109481812,-9.579360008239746,1.8374971151351929
1748142670888593000,17.057593017578125,1.9376850128173828,-9.519241333007812,1.3658335208892822
1748142670906858800,17.075858642578126,2.9113857746124268,-9.351551055908203,0.5553896427154541
1748142670925121000,17.09412109375,3.043234348297119,-9.325042724609375,0.1358061134815216
1748142670943389400,17.112389404296874,2.818493366241455,-9.39282512664795,0.25891852378845215
1748142670961641200,17.13064111328125,3.030048131942749,-9.325333595275879,0.30504778027534485
1748142670979919600,17.148919677734376,3.3908092975616455,-9.200748443603516,0.29114165902137756
1748142670998186000,17.16718603515625,3.578237295150757,-9.124430656433105,0.4208238422870636
1748142671016445200,17.185445068359375,3.5272412300109863,-9.132232666015625,0.6300925016403198
1748142671034712300,17.20371240234375,3.0601024627685547,-9.286360740661621,0.7971187829971313
1748142671052981000,17.22198095703125,2.402184009552002,-9.460626602172852,0.9809032082557678
1748142671071240000,17.240239990234375,1.7558244466781616,-9.58358097076416,1.1437487602233887
1748142671091783700,17.26078369140625,1.4689362049102783,-9.62441635131836,1.203717827796936
1748142671110060300,17.279060302734376,0.5144165754318237,-9.683135032653809,1.486067295074463
1748142671137457200,17.30645703125,-0.6353925466537476,-9.613456726074219,1.8476611375808716
1748142671155722200,17.32472216796875,-1.7304376363754272,-9.421051025390625,2.117903470993042
1748142671173987300,17.3429873046875,-2.779712677001953,-9.016556739807129,2.68533992767334
1748142671192248600,17.36124853515625,-2.732912063598633,-8.738438606262207,3.5223543643951416
1748142671210517000,17.37951708984375,-2.193967819213867,-8.559837341308594,4.260491847991943
1748142671228782600,17.397782470703124,-1.778510570526123,-8.152831077575684,5.157942771911621
1748142671247048000,17.4160478515625,-1.8522865772247314,-7.507273197174072,6.037052631378174
1748142671265312800,17.434312744140627,-2.513645648956299,-6.843509674072266,6.563847064971924
1748142671283577600,17.45257763671875,-3.5727570056915283,-6.445430755615234,6.4751811027526855
1748142671301847300,17.470847412109375,-4.663394451141357,-6.366483688354492,5.827239513397217
1748142671320108000,17.48910791015625,-5.395421981811523,-6.513158321380615,4.970340728759766
1748142671338367700,17.50736767578125,-5.696350574493408,-6.76398229598999,4.246912002563477
1748142671356638200,17.52563818359375,-5.675057888031006,-7.039915561676025,3.8038668632507324
1748142671374904800,17.54390478515625,-5.433757305145264,-7.320882797241211,3.6214725971221924
1748142671393168400,17.56216845703125,-4.957677364349365,-7.582709312438965,3.7629873752593994
1748142671411434000,17.58043408203125,-4.207622528076172,-7.7990312576293945,4.207987308502197
1748142671429698800,17.59869873046875,-3.3342623710632324,-7.991907596588135,4.609578609466553
1748142671447960000,17.6169599609375,-2.356098175048828,-8.251365661621094,4.753934860229492
1748142671466229000,17.63522900390625,-1.3574098348617554,-8.516061782836914,4.676562786102295
1748142671484494300,17.653494384765626,-0.7931099534034729,-8.623427391052246,4.609075546264648
1748142671502759200,17.67175927734375,-1.3180420398712158,-8.586888313293457,4.5567779541015625
1748142671521024800,17.690024658203125,-2.084068775177002,-8.509599685668945,4.413558006286621
1748142671539289900,17.708289794921875,-2.662984609603882,-8.410989761352539,4.289505958557129
1748142671557554400,17.726554443359376,-2.9951884746551514,-8.457290649414062,3.967264175415039
1748142671575820500,17.744820556640626,-3.1073689460754395,-8.895515441894531,2.729495048522949
1748142671594080300,17.763080322265626,-2.937216281890869,-9.283928871154785,1.1906059980392456
1748142671612349400,17.781349365234377,-2.635296583175659,-9.448878288269043,0.10007451474666595
1748142671630616000,17.799615966796875,-2.0296895503997803,-9.590682983398438,-0.3678126931190491
1748142671648880600,17.817880615234376,-1.02350914478302,-9.749998092651367,-0.3550751209259033
1748142671667145700,17.836145751953126,0.22109931707382202,-9.805848121643066,0.18048220872879028
1748142671685410300,17.854410400390623,1.167029619216919,-9.717732429504395,0.663189172744751
1748142671703676400,17.872676513671873,1.7025595903396606,-9.651172637939453,0.4384987950325012
1748142671721936400,17.890936279296874,2.5937328338623047,-9.446537971496582,-0.5211470127105713
1748142671740206300,17.909206298828124,2.6825754642486572,-9.331524848937988,-1.4009116888046265
1748142671758471200,17.92747119140625,2.2391514778137207,-9.475142478942871,-1.2016654014587402
1748142671776736300,17.945736328125,2.3359296321868896,-9.480966567993164,-0.9438247084617615
1748142671795001600,17.964001708984377,2.793447732925415,-9.370779991149902,-0.7881905436515808
1748142671813266700,17.9822666015625,3.1568949222564697,-9.274600982666016,-0.5019042491912842
1748142671831531800,18.00053173828125,3.3730411529541016,-9.211119651794434,-0.11831987649202347
1748142671849792300,18.018792236328125,3.2755227088928223,-9.244592666625977,0.21107250452041626
1748142671868061400,18.0370615234375,2.8055686950683594,-9.390409469604492,0.4302375614643097
1748142671886327800,18.055327880859377,2.203439474105835,-9.536276817321777,0.6635790467262268
1748142671904592100,18.073592041015626,1.5508620738983154,-9.642457008361816,0.9240980744361877
1748142671941117700,18.11011767578125,0.10092280060052872,-9.701850891113281,1.4491544961929321
1748142671959387100,18.12838720703125,-0.6360167264938354,-9.630197525024414,1.758101224899292
1748142671977652700,18.14665283203125,-1.423607587814331,-9.461536407470703,2.1653506755828857
1748142671995922000,18.164921875,-2.2527894973754883,-9.084905624389648,2.9369328022003174
1748142672014183200,18.18318310546875,-2.323439359664917,-8.548186302185059,4.215007305145264
1748142672032448800,18.20144873046875,-1.6939268112182617,-8.052480697631836,5.340813159942627
1748142672050712800,18.219712890625,-1.0095276832580566,-7.536032676696777,6.198805332183838
1748142672078110700,18.24711083984375,-0.9216226935386658,-6.832759380340576,6.978549480438232
1748142672096363000,18.265363037109374,-1.5563868284225464,-6.522557735443115,7.160306930541992
1748142672114631000,18.283630859375,-2.4279212951660156,-6.480044364929199,6.9534382820129395
1748142672132895500,18.3018955078125,-3.254394292831421,-6.7049031257629395,6.378817081451416
1748142672151166500,18.32016650390625,-3.837578058242798,-7.0591583251953125,5.628265857696533
1748142672169436000,18.338435791015623,-4.110668659210205,-7.452925205230713,4.877747535705566
1748142672187703000,18.356703125,-4.135129451751709,-7.805147171020508,4.2680840492248535
1748142672205963000,18.374962890625,-4.010889053344727,-8.075878143310547,3.863816022872925
1748142672224232000,18.39323193359375,-3.8412411212921143,-8.26426887512207,3.630824089050293
1748142672242497000,18.4114970703125,-3.558333396911621,-8.421582221984863,3.5568737983703613
1748142672260763100,18.42976318359375,-2.943361520767212,-8.602173805236816,3.6844749450683594
1748142672279027500,18.44802734375,-1.9573371410369873,-8.799660682678223,3.869227886199951
1748142672297292000,18.4662919921875,-0.9040529727935791,-8.907729148864746,4.0088887214660645
1748142672315557600,18.4845576171875,-0.09384883940219879,-8.927530288696289,4.065281391143799
1748142672333823700,18.50282373046875,-1.0795810222625732,-8.819738388061523,4.1572651863098145
1748142672352088000,18.521088134765623,-2.2022688388824463,-8.665066719055176,4.037668704986572
1748142672370353400,18.539353515625,-3.124600410461426,-8.535295486450195,3.6907615661621094
1748142672388617500,18.557617431640626,-3.6325390338897705,-8.628657341003418,2.9303650856018066
1748142672406879000,18.57587890625,-3.3076043128967285,-9.082212448120117,1.6760977506637573
1748142672425147600,18.594147705078125,-2.169891595840454,-9.53149127960205,0.8236356377601624
1748142672443414800,18.612414794921875,-1.05675208568573,-9.726149559020996,0.7221010327339172
1748142672461677600,18.630677490234376,-0.1610548347234726,-9.751032829284668,1.0618579387664795
1748142672479939800,18.64893994140625,0.6824807524681091,-9.674637794494629,1.4736735820770264
1748142672498208500,18.66720849609375,1.4362568855285645,-9.558324813842773,1.6768194437026978
1748142672516473600,18.6854736328125,2.1626322269439697,-9.475976943969727,1.3285318613052368
1748142672534739000,18.703739013671875,2.804023027420044,-9.380322456359863,0.6189503073692322
1748142672553005000,18.722005126953125,2.788219451904297,-9.394440650939941,0.45433905720710754
1748142672571269400,18.740269287109374,2.728490114212036,-9.406571388244629,0.5548684597015381
1748142672589528600,18.758528564453126,3.042057752609253,-9.303619384765625,0.6516610980033875
1748142672623780600,18.792780517578127,3.3841285705566406,-9.155265808105469,0.9822850823402405
1748142672642045200,18.811045166015624,3.1012096405029297,-9.222620964050293,1.2497544288635254
1748142672660310500,18.829310546875,2.614119529724121,-9.326251983642578,1.5567656755447388
1748142672678575600,18.84757568359375,2.0406534671783447,-9.412988662719727,1.8621265888214111
1748142672696841000,18.865841064453125,1.4755078554153442,-9.464089393615723,2.118966817855835
1748142672715105500,18.88410546875,0.8155622482299805,-9.500434875488281,2.3049283027648926
1748142672733366300,18.9023662109375,0.013318642042577267,-9.51008415222168,2.4071226119995117
1748142672751637200,18.92063720703125,-0.8936750292778015,-9.451714515686035,2.470341920852661
1748142672769899000,18.93889892578125,-1.8871278762817383,-9.278318405151367,2.5666470527648926
1748142672788167200,18.957167236328125,-2.8951737880706787,-8.88420581817627,2.9874682426452637
1748142672806431200,18.97543115234375,-3.0425729751586914,-8.449729919433594,3.9472734928131104
1748142672824697000,18.993697021484376,-2.3870797157287598,-8.194650650024414,4.835873126983643
1748142672842961200,19.011961181640626,-2.0211613178253174,-7.686163902282715,5.750994682312012
1748142672861219000,19.030218994140625,-2.111201286315918,-7.137821674346924,6.38987398147583
1748142672879494400,19.048494384765625,-2.5915732383728027,-6.746367931365967,6.633731365203857
1748142672897757000,19.0667568359375,-3.2623307704925537,-6.490283966064453,6.593141555786133
1748142672916021500,19.085021484375,-3.8882219791412354,-6.430962085723877,6.305599689483643
1748142672934287600,19.10328759765625,-4.379169940948486,-6.6141133308410645,5.771697998046875
1748142672952552400,19.121552490234375,-4.659923553466797,-6.922379970550537,5.157698154449463
1748142672970817500,19.139817626953125,-4.728532791137695,-7.267270088195801,4.589539051055908
1748142672989078300,19.158078369140625,-4.618285655975342,-7.596902847290039,4.146643161773682
1748142673007347500,19.176347412109376,-4.374873638153076,-7.879692554473877,3.8738977909088135
1748142673025613000,19.194613037109374,-3.991069793701172,-8.157546997070312,3.7097041606903076
1748142673043878000,19.2128779296875,-3.423067808151245,-8.45305347442627,3.6144981384277344
1748142673062143200,19.231143310546877,-2.759371757507324,-8.654618263244629,3.7039918899536133
1748142673080407600,19.249407470703126,-1.9824070930480957,-8.736112594604492,3.9983127117156982
1748142673098672000,19.267672119140624,-1.0889582633972168,-8.720693588256836,4.3588786125183105
1748142673116939300,19.285939208984374,-0.45739421248435974,-8.638290405273438,4.6267547607421875
1748142673135207700,19.304207763671876,-1.683971881866455,-8.5068998336792,4.586177349090576
1748142673153468200,19.32246826171875,-2.8186047077178955,-8.378960609436035,4.252597332000732
1748142673171733800,19.340733642578126,-3.5084898471832275,-8.35859489440918,3.749734878540039
1748142673190000400,19.35900048828125,-3.5207672119140625,-8.580572128295898,3.1959519386291504
1748142673208267300,19.377267333984374,-2.869555711746216,-9.067279815673828,2.4054553508758545
1748142673226528500,19.395528564453127,-1.5853004455566406,-9.547818183898926,1.6006580591201782
1748142673244789500,19.41378955078125,-0.3067838251590729,-9.72690200805664,1.2366923093795776
1748142673263058000,19.432057861328126,0.5910254716873169,-9.70500373840332,1.3037315607070923
1748142673281325800,19.450325927734376,1.4136191606521606,-9.616432189941406,1.327406644821167
1748142673299588900,19.4685888671875,2.1572659015655518,-9.497610092163086,1.1737771034240723
1748142673317854700,19.486854736328127,2.7375340461730957,-9.37686824798584,0.9035363793373108
1748142673336119300,19.505119384765624,3.454578399658203,-9.176189422607422,0.31554895639419556
1748142673354387500,19.523387451171875,3.437204599380493,-9.188126564025879,-0.00829032901674509
1748142673372648200,19.541648193359375,3.358257293701172,-9.216501235961914,0.11969704180955887
1748142673390916000,19.559916015625,3.5766794681549072,-9.129501342773438,0.3093320429325104
1748142673409179600,19.5781796875,3.6949307918548584,-9.073667526245117,0.5021677017211914
1748142673427445800,19.59644580078125,3.613246202468872,-9.094170570373535,0.6903867721557617
1748142673445710000,19.6147099609375,3.3409454822540283,-9.18291187286377,0.8650669455528259
1748142673463975400,19.632975341796875,2.949585199356079,-9.29340648651123,1.0810383558273315
1748142673482235600,19.651235595703124,2.5239548683166504,-9.384092330932617,1.343344807624817
1748142673500501200,19.669501220703125,2.0748038291931152,-9.44406509399414,1.6555798053741455
1748142673518769400,19.687769287109376,1.5947569608688354,-9.471799850463867,1.994457721710205
1748142673537036800,19.706036865234374,1.0492737293243408,-9.456770896911621,2.3884408473968506
1748142673555300900,19.72430078125,0.3602074980735779,-9.386551856994629,2.828254461288452
1748142673573566500,19.74256640625,-0.6400739550590515,-9.206473350524902,3.3267557621002197
1748142673591831000,19.7608310546875,-1.8790136575698853,-8.84912395477295,3.7945244312286377
1748142673610095900,19.779095947265624,-1.873231053352356,-8.656316757202148,4.218451023101807
1748142673628361500,19.797361572265626,-1.282482385635376,-8.48826789855957,4.747702121734619
1748142673646626800,19.815626708984375,-0.8668854236602783,-8.18200969696045,5.342224597930908
1748142673664891400,19.833891357421876,-0.8462038040161133,-7.793732643127441,5.897268772125244
1748142673683156700,19.85215673828125,-1.2065075635910034,-7.382259368896484,6.346867561340332
1748142673701421600,19.870421630859376,-1.8940646648406982,-7.0786027908325195,6.522424221038818
1748142673719686400,19.888686279296873,-2.695850133895874,-7.034324645996094,6.283848762512207
1748142673737952800,19.906952880859375,-3.3791301250457764,-7.156678199768066,5.796512126922607
1748142673756212500,19.92521240234375,-3.819382667541504,-7.347278594970703,5.259843826293945
1748142673774476500,19.9434765625,-3.9694042205810547,-7.554474353790283,4.838376045227051
1748142673792748800,19.961748779296876,-3.900089979171753,-7.759368896484375,4.562632083892822
1748142673811011800,19.98001171875,-3.5675265789031982,-8.027201652526855,4.36725378036499
1748142673829277700,19.998277587890627,-3.0319676399230957,-8.306857109069824,4.247281551361084
1748142673847538000,20.016537841796875,-2.424621343612671,-8.517769813537598,4.219588756561279
1748142673865808100,20.03480810546875,-1.773011565208435,-8.698220252990723,4.1753458976745605
1748142673884072700,20.05307275390625,-1.029801845550537,-8.77865982055664,4.255671977996826
1748142673902335200,20.071335205078125,-0.4611424505710602,-8.793672561645508,4.323742866516113
1748142673920606000,20.08960595703125,-1.9661999940872192,-8.679606437683105,4.127297878265381
1748142673938864000,20.107864013671875,-3.5607826709747314,-8.447892189025879,3.491426467895508
1748142673957137400,20.126137451171875,-4.174013614654541,-8.333474159240723,3.060544490814209
1748142673975398400,20.1443984375,-2.8998284339904785,-8.706170082092285,3.4683914184570312
1748142673993662500,20.162662353515625,-1.3696684837341309,-9.15676498413086,3.2425007820129395
1748142674011929900,20.180929931640627,-0.5960217714309692,-9.491232872009277,2.407771587371826
1748142674030194200,20.199194091796876,-0.4486978054046631,-9.688830375671387,1.4701614379882812
1748142674048459000,20.217458984375,-0.39869606494903564,-9.775615692138672,0.7172800302505493
1748142674066724000,20.23572412109375,0.042281217873096466,-9.799056053161621,0.4613087773323059
1748142674084989400,20.253989501953125,0.9889315962791443,-9.719071388244629,0.8931832909584045
1748142674103249400,20.27224951171875,2.622256278991699,-9.402883529663086,0.9724586606025696
1748142674121519400,20.290519287109376,4.275097370147705,-8.82305908203125,-0.3365881145000458
1748142674139784700,20.30878466796875,3.90429425239563,-8.887542724609375,-1.415693998336792
1748142674158049500,20.327049560546875,3.194719076156616,-9.208044052124023,-1.1143653392791748
1748142674176314600,20.345314697265625,3.250734567642212,-9.212735176086426,-0.8912627696990967
1748142674194574800,20.363574951171874,3.548830032348633,-9.114530563354492,-0.7531775236129761
1748142674212844500,20.381844482421876,3.6859207153320312,-9.079465866088867,-0.46195971965789795
1748142674231110100,20.400110107421874,3.714930772781372,-9.079168319702148,-0.06418883800506592
1748142674249375000,20.418375,3.603567600250244,-9.120149612426758,0.2707500755786896
1748142674267639000,20.43663916015625,3.2711191177368164,-9.2379150390625,0.44363442063331604
1748142674285904600,20.454904541015626,2.8204054832458496,-9.371037483215332,0.6819673776626587
1748142674304160800,20.473160888671874,2.3555285930633545,-9.470224380493164,1.0012229681015015
1748142674322435000,20.49143505859375,1.8771963119506836,-9.525883674621582,1.4034899473190308
1748142674340700700,20.50970068359375,1.2957725524902344,-9.530817031860352,1.9288890361785889
1748142674358960000,20.527960205078124,0.5403624176979065,-9.45750904083252,2.5494422912597656
1748142674377226000,20.54622607421875,-0.6731183528900146,-9.250377655029297,3.195866346359253
1748142674395495400,20.564495361328124,-1.4518704414367676,-9.039318084716797,3.524042844772339
1748142674413760800,20.5827607421875,-1.0698963403701782,-9.033178329467773,3.6733031272888184
1748142674432026000,20.601026123046875,-0.5779269933700562,-8.959507942199707,3.953395366668701
1748142674450291200,20.619291259765625,-0.338619589805603,-8.727762222290039,4.466274738311768
1748142674468555800,20.6375556640625,-0.48271092772483826,-8.346757888793945,5.131739616394043
1748142674486821400,20.6558212890625,-1.0563533306121826,-7.940298557281494,5.663204669952393
1748142674505086000,20.6740859375,-1.9275660514831543,-7.675732135772705,5.796872138977051
1748142674523351800,20.692351806640627,-2.8230440616607666,-7.597629547119141,5.526529312133789
1748142674541616400,20.710616455078124,-3.5209238529205322,-7.645503997802734,5.038403034210205
1748142674559880400,20.72888037109375,-3.9461095333099365,-7.771357536315918,4.502261161804199
1748142674578147300,20.747147216796876,-4.0762505531311035,-7.947036266326904,4.057703971862793
1748142674596413200,20.7654130859375,-3.815491199493408,-8.118314743041992,3.971289873123169
1748142674614670800,20.7836708984375,-3.1725802421569824,-8.252176284790039,4.251168251037598
1748142674632942000,20.801942138671876,-2.475318670272827,-8.296744346618652,4.612262725830078
1748142674651205400,20.820205322265625,-1.7557849884033203,-8.253457069396973,5.003377437591553
1748142674669472800,20.83847265625,-0.8281885385513306,-8.254082679748535,5.2364420890808105
1748142674687737000,20.856737060546877,-0.13471196591854095,-8.076261520385742,5.567042350769043
1748142674706002400,20.87500244140625,-1.5247118473052979,-7.846574783325195,5.687057018280029
1748142674724263400,20.893263427734375,-3.3556430339813232,-7.649400234222412,5.144167900085449
1748142674742532900,20.911532958984374,-3.7468421459198,-7.603304386138916,4.938323974609375
1748142674760797400,20.92979736328125,-2.95950984954834,-7.9363884925842285,4.948852062225342
1748142674779062800,20.948062744140625,-2.8120617866516113,-8.440070152282715,4.1344451904296875
1748142674797328100,20.966328125,-2.809270143508911,-8.908305168151855,2.997701644897461
1748142674815593500,20.984593505859376,-2.590841770172119,-9.290244102478027,1.793053150177002
1748142674833857800,21.00285791015625,-1.6728456020355225,-9.647281646728516,0.6063752770423889
1748142674852123400,21.021123291015623,-0.15482769906520844,-9.80840015411377,-0.08613943308591843
1748142674870383400,21.03938330078125,1.4815037250518799,-9.696165084838867,0.1601230800151825
1748142674888652500,21.057652587890626,2.6021718978881836,-9.420513153076172,0.847785472869873
1748142674906919400,21.07591943359375,3.3172144889831543,-9.167140007019043,1.0934960842132568
1748142674925184300,21.094184326171874,4.269464015960693,-8.82797908782959,-0.2731056213378906
1748142674943448800,21.11244873046875,3.8902907371520996,-8.915614128112793,-1.270267367362976
1748142674961714000,21.1307138671875,3.4088332653045654,-9.13259220123291,-1.100790023803711
1748142674979975700,21.1489755859375,3.4417526721954346,-9.138616561889648,-0.9360178112983704
1748142674998242600,21.16724267578125,3.5507307052612305,-9.12366771697998,-0.6221907138824463
1748142675016506000,21.185506103515625,3.6724658012390137,-9.095427513122559,-0.14938949048519135
1748142675034777300,21.20377734375,3.75639009475708,-9.057785034179688,0.2866615056991577
1748142675053039000,21.2220390625,3.6177139282226562,-9.108819007873535,0.42151644825935364
1748142675071304400,21.240304443359374,3.1976871490478516,-9.264360427856445,0.4272564947605133
1748142675089569500,21.258569580078124,2.6345276832580566,-9.434393882751465,0.5362642407417297
1748142675107835100,21.276835205078125,1.9707833528518677,-9.579850196838379,0.7606499791145325
1748142675126094600,21.295094482421874,1.3340699672698975,-9.655891418457031,1.1046044826507568
1748142675144364000,21.313364013671876,0.6886342763900757,-9.659192085266113,1.5690498352050781
1748142675162631700,21.331631591796874,-0.07947827875614166,-9.580341339111328,2.1087615489959717
1748142675180894700,21.349894775390624,-1.3222087621688843,-9.309393882751465,2.7969770431518555
1748142675199158300,21.368158203125,-2.0474226474761963,-8.842857360839844,3.7212986946105957
1748142675217422000,21.386422119140626,-1.7902123928070068,-8.59760570526123,4.371778964996338
1748142675235678700,21.4046787109375,-1.2756471633911133,-8.417167663574219,4.874436378479004
1748142675253956900,21.422956787109374,-0.8404871225357056,-8.211639404296875,5.300820827484131
1748142675272215300,21.44121533203125,-0.7462934851646423,-7.986438751220703,5.647651672363281
1748142675290485800,21.45948583984375,-1.0835011005401611,-7.763712406158447,5.898041725158691
1748142675308737300,21.4777373046875,-1.8192150592803955,-7.617984294891357,5.907022476196289
1748142675327017200,21.496017333984376,-2.614414691925049,-7.6304402351379395,5.583664894104004
1748142675345280500,21.514280517578126,-3.250490188598633,-7.7312211990356445,5.089073657989502
1748142675363546000,21.532546142578123,-3.6854517459869385,-7.869635581970215,4.552186965942383
1748142675381811000,21.55081103515625,-3.9357125759124756,-8.016181945800781,4.060437202453613
1748142675400075000,21.569074951171874,-3.8419015407562256,-8.126007080078125,3.9298782348632812
1748142675418342000,21.587341796875,-3.2514708042144775,-8.24649715423584,4.202295780181885
1748142675436606500,21.6056064453125,-2.2299256324768066,-8.482093811035156,4.395186424255371
1748142675454871300,21.623871337890623,-1.1661133766174316,-8.66914176940918,4.440976619720459
1748142675473137000,21.642136962890625,-0.14929959177970886,-8.712510108947754,4.506217002868652
1748142675491401200,21.660401123046874,0.5967987179756165,-8.683735847473145,4.524672031402588
1748142675509665000,21.6786650390625,-0.02563653327524662,-8.603090286254883,4.714052200317383
1748142675527932700,21.6969326171875,-1.257683515548706,-8.483339309692383,4.763116359710693
1748142675546199300,21.71519921875,-2.378593683242798,-8.344124794006348,4.577550411224365
1748142675564457000,21.73345703125,-3.1271274089813232,-8.307415962219238,4.176604270935059
1748142675582727200,21.75172705078125,-3.3612563610076904,-8.539113998413086,3.4672234058380127
1748142675600992000,21.769991943359376,-2.734999895095825,-9.0744047164917,2.5320136547088623
1748142675619253500,21.78825341796875,-1.896485686302185,-9.464985847473145,1.7474229335784912
1748142675637522200,21.806522216796875,-1.0006248950958252,-9.675057411193848,1.2759861946105957
1748142675655786500,21.824786376953124,0.1574609875679016,-9.723679542541504,1.2889477014541626
1748142675674053600,21.8430537109375,1.4122710227966309,-9.533102989196777,1.8334546089172363
1748142675692317700,21.861317626953124,2.259842872619629,-9.315101623535156,2.0876073837280273
1748142675710582000,21.87958203125,3.4436826705932617,-9.097698211669922,1.2684831619262695
1748142675728843000,21.897843017578126,4.031198978424072,-8.942327499389648,0.14248086512088776
1748142675747113000,21.916113037109376,3.5766589641571045,-9.131170272827148,0.25566527247428894
1748142675765378300,21.93437841796875,3.388680934906006,-9.198055267333984,0.38566407561302185
1748142675783641600,21.9526416015625,3.510389566421509,-9.15229606628418,0.3857140839099884
1748142675801909200,21.9709091796875,3.5025832653045654,-9.144577026367188,0.5871445536613464
1748142675820173300,21.98917333984375,3.4181268215179443,-9.148592948913574,0.9250890612602234
1748142675838438700,22.007438720703124,3.22943377494812,-9.189780235290527,1.1639620065689087
1748142675856703200,22.025703125,2.788510322570801,-9.323369979858398,1.238985538482666
1748142675874968600,22.043968505859375,2.2403078079223633,-9.455848693847656,1.3431568145751953
1748142675893228800,22.062228759765624,1.7062140703201294,-9.544557571411133,1.4921056032180786
1748142675911498500,22.08049853515625,1.166021704673767,-9.58971118927002,1.7070220708847046
1748142675929763600,22.098763671875,0.5312603712081909,-9.584371566772461,2.0232961177825928
1748142675948029000,22.11702880859375,-0.2536297142505646,-9.511981964111328,2.3862099647521973
1748142675966294000,22.1352939453125,-1.3720769882202148,-9.305778503417969,2.784965753555298
1748142675984568800,22.15356884765625,-2.5511128902435303,-8.881622314453125,3.2931346893310547
1748142676002822700,22.17182275390625,-2.0689220428466797,-8.776402473449707,3.863994598388672
1748142676030216400,22.199216552734374,-0.9186948537826538,-8.523019790649414,4.769721508026123
1748142676048487200,22.217487060546876,-1.1077262163162231,-8.06146240234375,5.479223251342773
1748142676075887400,22.244887451171873,-2.5639808177948,-7.386703014373779,5.924421787261963
1748142676094147600,22.263147705078126,-3.7732348442077637,-7.188320636749268,5.506983757019043
1748142676112416500,22.28141650390625,-4.736727714538574,-7.156841278076172,4.751752853393555
1748142676130679000,22.299678955078125,-5.352586269378662,-7.206905841827393,3.9555602073669434
1748142676148945700,22.317945556640623,-5.603820323944092,-7.320485591888428,3.353182554244995
1748142676167206000,22.336205810546875,-5.282573223114014,-7.53593635559082,3.397087812423706
1748142676185475000,22.35447509765625,-4.282309532165527,-7.782895088195801,4.162265777587891
1748142676203732200,22.372732177734374,-2.9020814895629883,-7.9016432762146,5.037667751312256
1748142676222005000,22.3910048828125,-1.556845784187317,-7.882856845855713,5.627869129180908
1748142676240265200,22.40926513671875,-0.20924817025661469,-7.9230523109436035,5.7807936668396
1748142676258534100,22.4275341796875,1.0171406269073486,-7.982141017913818,5.611325263977051
1748142676276802000,22.445802001953126,1.3195265531539917,-7.984010219573975,5.545317649841309
1748142676295065000,22.464065185546875,0.11111493408679962,-7.986597537994385,5.695440769195557
1748142676313314800,22.482314697265625,-1.7697184085845947,-8.058243751525879,5.307435512542725
1748142676331595800,22.500595703125,-2.936288833618164,-8.323918342590332,4.280970096588135
1748142676349859600,22.518859619140624,-3.146202802658081,-8.802435874938965,2.975682497024536
1748142676368126500,22.53712646484375,-3.2430639266967773,-9.114501953125,1.626200556755066
1748142676386390800,22.555390869140624,-2.9439053535461426,-9.329178810119629,0.7320719957351685
1748142676404647400,22.5736474609375,-1.9429371356964111,-9.611688613891602,0.2766639292240143
1748142676422922500,22.591922607421875,-0.6305783987045288,-9.786231994628906,0.26106297969818115
1748142676441186800,22.610186767578124,0.7920558452606201,-9.756230354309082,0.6517274975776672
1748142676459451100,22.628451171875,1.9215202331542969,-9.54879379272461,1.168088674545288
1748142676477716500,22.646716552734375,2.610215902328491,-9.369423866271973,1.2793775796890259
1748142676495976700,22.664976806640624,3.5475871562957764,-9.130827903747559,0.5279274582862854
1748142676514241500,22.683241455078125,3.6729278564453125,-9.084112167358398,-0.4739491641521454
1748142676532512500,22.701512451171876,3.0414371490478516,-9.31253719329834,-0.5122729539871216
1748142676550776800,22.71977685546875,2.874743938446045,-9.36941146850586,-0.43137308955192566
1748142676569041700,22.738041748046875,3.0107338428497314,-9.330036163330078,-0.34931883215904236
1748142676587301600,22.756301513671875,3.0965638160705566,-9.30808162689209,-0.08391793072223663
1748142676605571800,22.77457177734375,3.180203437805176,-9.275652885437012,0.2910100817680359
1748142676623837200,22.792837158203124,3.0754966735839844,-9.295945167541504,0.6023492217063904
1748142676642102500,22.8111025390625,2.676551580429077,-9.399107933044434,0.8537864685058594
1748142676660367000,22.8293671875,2.203911542892456,-9.489978790283203,1.1485627889633179
1748142676678633200,22.84763330078125,1.702495813369751,-9.548778533935547,1.4691745042800903
1748142676699124000,22.8681240234375,1.103002905845642,-9.57750129699707,1.8141063451766968
1748142676717449500,22.886449462890624,0.44255751371383667,-9.557649612426758,2.1660051345825195
1748142676735711700,22.904711669921873,-0.3196795582771301,-9.468783378601074,2.544814109802246
1748142676753973000,22.922972900390626,-1.2132350206375122,-9.27819538116455,2.9460577964782715
1748142676772238300,22.94123828125,-2.205003499984741,-8.963007926940918,3.322436809539795
1748142676790507500,22.959507568359374,-2.860506296157837,-8.516995429992676,3.938833475112915
1748142676808772400,22.9777724609375,-2.037931442260742,-8.26698112487793,4.87237024307251
1748142676827037200,22.996037109375,-1.1399509906768799,-7.8918657302856445,5.714461326599121
1748142676845301200,23.01430126953125,-0.8355639576911926,-7.457986831665039,6.317942142486572
1748142676863569700,23.032569580078125,-1.1662143468856812,-7.089208602905273,6.679758071899414
1748142676881832400,23.05083251953125,-2.072199583053589,-6.850006580352783,6.709657669067383
1748142676900097500,23.06909765625,-3.136674165725708,-6.769037246704102,6.370048999786377
1748142676918362000,23.087362060546877,-4.001478672027588,-6.901772499084473,5.708749771118164
1748142676936629500,23.10562939453125,-4.56206750869751,-7.152714252471924,4.925685882568359
1748142676954892500,23.123892578125,-4.819772243499756,-7.439018726348877,4.2032060623168945
1748142676973157600,23.14215771484375,-4.8654913902282715,-7.7149505615234375,3.6114602088928223
1748142676991422700,23.160422607421875,-4.71966552734375,-7.957146167755127,3.2626214027404785
1748142677009688800,23.178688720703125,-4.2772932052612305,-8.145051002502441,3.405733823776245
1748142677027948500,23.196948486328125,-3.508065938949585,-8.255799293518066,3.9713191986083984
1748142677046217500,23.215217529296876,-2.3691341876983643,-8.357160568237305,4.558638572692871
1748142677064483800,23.23348388671875,-0.9825074076652527,-8.467164993286133,4.855710029602051
1748142677082749400,23.25174951171875,0.2950141131877899,-8.427505493164062,5.012606620788574
1748142677101013500,23.270013427734376,1.3731938600540161,-8.273690223693848,5.088859558105469
1748142677119278600,23.288278564453126,1.1514400243759155,-8.138230323791504,5.35532808303833
1748142677137544700,23.306544677734376,0.3691011071205139,-8.074275016784668,5.559314727783203
1748142677155810300,23.324810302734374,-1.359778881072998,-8.19770336151123,5.213901042938232
1748142677174078000,23.343077880859376,-2.7574868202209473,-8.502692222595215,4.041852951049805
1748142677192339500,23.36133935546875,-3.27997088432312,-8.874279975891113,2.5932698249816895
1748142677210603500,23.379603515625,-2.1604483127593994,-9.435582160949707,1.593222737312317
1748142677228870100,23.3978701171875,-0.17749720811843872,-9.733543395996094,1.209435224533081
1748142677247133700,23.4161337890625,1.4357953071594238,-9.594018936157227,1.4592467546463013
1748142677265398800,23.434398681640626,2.412219524383545,-9.3005952835083,1.978946328163147
1748142677283664400,23.452664306640624,2.906085968017578,-9.123283386230469,2.134592056274414
1748142677301920000,23.470919921875,3.539593458175659,-9.02686882019043,1.4909847974777222
1748142677320194000,23.489194091796875,3.622753381729126,-9.068092346191406,0.938863217830658
1748142677338459400,23.50745947265625,3.4538276195526123,-9.114950180053711,1.1067355871200562
1748142677356724000,23.525723876953126,3.6346242427825928,-9.01708984375,1.3106131553649902
